ACC_X 0, ACC_Y 0, ACC_Z 0, ACC_X 1, ACC_Y 1, ACC_Z 1, ACC_X 2, ACC_Y 2, ACC_Z 2, Time[ms]
-0.047365,-0.007813,-0.98294,-0.355968,0.93118,0.190924,0.141606,-0.028321,-1.038117,  --- 0.000000
-0.052248,-0.016114,-0.988311,-0.353038,0.93118,0.218268,0.135746,-0.032228,-1.056672,  --- 1.353736
-0.052248,-0.016114,-0.988311,-0.353038,0.93118,0.218268,0.135746,-0.032228,-1.056672,  --- 2.354852
-0.051759,-0.012696,-0.98587,-0.344737,0.941923,0.205573,0.134281,-0.028321,-1.038606,  --- 3.355703
-0.051759,-0.012696,-0.98587,-0.344737,0.941923,0.205573,0.134281,-0.028321,-1.038606,  --- 4.356742
-0.048341,-0.024415,-0.986846,-0.357921,0.922391,0.221198,0.145512,-0.021973,-1.026886,  --- 5.357518
-0.048341,-0.024415,-0.986846,-0.357921,0.922391,0.221198,0.145512,-0.021973,-1.026886,  --- 6.357917
-0.052736,-0.013184,-0.981963,-0.35255,0.938017,0.212897,0.138676,-0.019532,-1.019562,  --- 7.358057
-0.0459,-0.010254,-0.993682,-0.351573,0.918973,0.212897,0.144047,-0.032716,-1.043977,  --- 8.632917
-0.0459,-0.010254,-0.993682,-0.351573,0.918973,0.212897,0.144047,-0.032716,-1.043977,  --- 9.633064
-0.062014,-0.001465,-0.98587,-0.345714,0.924344,0.195318,0.141606,-0.019044,-1.035676,  --- 10.633182
-0.062014,-0.001465,-0.98587,-0.345714,0.924344,0.195318,0.141606,-0.019044,-1.035676,  --- 11.633341
-0.049318,-0.015137,-0.97708,-0.341319,0.920438,0.213385,0.14893,-0.035646,-1.049348,  --- 12.633546
-0.049318,-0.015137,-0.97708,-0.341319,0.920438,0.213385,0.14893,-0.035646,-1.049348,  --- 13.633710
-0.056154,-0.009766,-0.972197,-0.354991,0.93118,0.21192,0.139653,-0.017579,-1.04007,  --- 14.633896
-0.056154,-0.009766,-0.972197,-0.354991,0.93118,0.21192,0.139653,-0.017579,-1.04007,  --- 15.634059
-0.052736,-0.015625,-0.982451,-0.354015,0.932157,0.219733,0.127934,-0.016114,-1.032746,  --- 16.634243
-0.052736,-0.015625,-0.982451,-0.354015,0.932157,0.219733,0.127934,-0.016114,-1.032746,  --- 17.928017
-0.051759,-0.020997,-0.978057,-0.370617,0.946318,0.210456,0.140141,-0.026368,-1.030305,  --- 18.930695
-0.056154,-0.006836,-0.991729,-0.353526,0.930692,0.215827,0.135258,-0.02295,-1.042512,  --- 19.948605
-0.056154,-0.006836,-0.991729,-0.353526,0.930692,0.215827,0.135258,-0.02295,-1.042512,  --- 20.948967
-0.054201,-0.013672,-0.973174,-0.351573,0.928251,0.221198,0.139164,-0.027345,-1.045442,  --- 21.949083
-0.054201,-0.013672,-0.973174,-0.351573,0.928251,0.221198,0.139164,-0.027345,-1.045442,  --- 22.967041
-0.048341,-0.008301,-0.987823,-0.351085,0.93411,0.201178,0.142094,-0.026368,-1.044953,  --- 23.967316
-0.048341,-0.008301,-0.987823,-0.351085,0.93411,0.201178,0.142094,-0.026368,-1.044953,  --- 24.967512
-0.051271,-0.016114,-0.990264,-0.359386,0.926786,0.193365,0.13477,-0.020508,-1.041047,  --- 25.967670
-0.051271,-0.016114,-0.990264,-0.359386,0.926786,0.193365,0.13477,-0.020508,-1.041047,  --- 26.967888
-0.049318,-0.007813,-0.983428,-0.351085,0.929227,0.203131,0.137211,-0.014161,-1.026398,  --- 27.973896
-0.047365,-0.011719,-0.988311,-0.34962,0.933622,0.200201,0.135746,-0.014649,-1.025422,  --- 29.209961
-0.047365,-0.011719,-0.988311,-0.34962,0.933622,0.200201,0.135746,-0.014649,-1.025422,  --- 30.210104
-0.049806,-0.019532,-0.994659,-0.355479,0.933622,0.216315,0.13477,-0.00586,-1.036164,  --- 31.210260
-0.049806,-0.019532,-0.994659,-0.355479,0.933622,0.216315,0.13477,-0.00586,-1.036164,  --- 32.210453
-0.051759,-0.009766,-0.990264,-0.345714,0.932157,0.201666,0.132328,-0.031739,-1.030793,  --- 33.210667
-0.051759,-0.009766,-0.990264,-0.345714,0.932157,0.201666,0.132328,-0.031739,-1.030793,  --- 34.210854
-0.0459,-0.003418,-0.98001,-0.344249,0.927274,0.195807,0.135746,-0.028809,-1.040559,  --- 35.211018
-0.0459,-0.003418,-0.98001,-0.344249,0.927274,0.195807,0.135746,-0.028809,-1.040559,  --- 36.211178
-0.050783,-0.00586,-0.995147,-0.350108,0.945341,0.210944,0.135746,-0.028809,-1.027375,  --- 37.211395
-0.050783,-0.00586,-0.995147,-0.350108,0.945341,0.210944,0.135746,-0.028809,-1.027375,  --- 38.211597
-0.053224,-0.025391,-0.983916,-0.34669,0.923368,0.220221,0.141118,-0.032716,-1.045442,  --- 39.211845
-0.053224,-0.004883,-0.990753,-0.344249,0.93411,0.210456,0.141606,-0.021973,-1.045442,  --- 40.463661
-0.053224,-0.004883,-0.990753,-0.344249,0.93411,0.210456,0.141606,-0.021973,-1.045442,  --- 41.463982
-0.055177,-0.013672,-0.988799,-0.361339,0.927762,0.207526,0.136723,-0.020508,-1.04593,  --- 42.464199
-0.055177,-0.013672,-0.988799,-0.361339,0.927762,0.207526,0.136723,-0.020508,-1.04593,  --- 43.464420
-0.052736,-0.011231,-0.985381,-0.346202,0.930204,0.199225,0.140141,-0.026368,-1.021027,  --- 44.464622
-0.052736,-0.011231,-0.985381,-0.346202,0.930204,0.199225,0.140141,-0.026368,-1.021027,  --- 45.464809
-0.048341,-0.013672,-0.980987,-0.35255,0.932645,0.224128,0.144536,-0.035646,-1.036652,  --- 46.465755
-0.048341,-0.013672,-0.980987,-0.35255,0.932645,0.224128,0.144536,-0.035646,-1.036652,  --- 47.465996
-0.054201,-0.014161,-0.989776,-0.358898,0.928251,0.211432,0.14893,-0.031251,-1.038606,  --- 48.471603
-0.054201,-0.014161,-0.989776,-0.358898,0.928251,0.211432,0.14893,-0.031251,-1.038606,  --- 49.471951
-0.056154,-0.011719,-0.980498,-0.348643,0.929716,0.22364,0.141118,-0.01709,-1.025422,  --- 50.472095
-0.056154,-0.011719,-0.980498,-0.348643,0.929716,0.22364,0.141118,-0.01709,-1.025422,  --- 51.722427
-0.053224,-0.007813,-0.987334,-0.355479,0.93997,0.197272,0.142582,-0.019044,-1.036164,  --- 52.722713
-0.044923,-0.00293,-0.983428,-0.347667,0.933134,0.209967,0.139653,-0.030274,-1.041047,  --- 53.722832
-0.044923,-0.00293,-0.983428,-0.347667,0.933134,0.209967,0.139653,-0.030274,-1.041047,  --- 54.723000
-0.049318,-0.002441,-0.986846,-0.355968,0.931669,0.218757,0.149907,-0.02295,-1.032746,  --- 55.731873
-0.049318,-0.002441,-0.986846,-0.355968,0.931669,0.218757,0.149907,-0.02295,-1.032746,  --- 56.732159
-0.057619,-0.008789,-0.98001,-0.350108,0.929227,0.222663,0.146489,-0.020508,-1.023468,  --- 57.737881
-0.057619,-0.008789,-0.98001,-0.350108,0.929227,0.222663,0.146489,-0.020508,-1.023468,  --- 58.738197
-0.050783,-0.008301,-0.986846,-0.357433,0.930692,0.201666,0.145512,-0.020508,-1.034699,  --- 59.738422
-0.050783,-0.008301,-0.986846,-0.357433,0.930692,0.201666,0.145512,-0.020508,-1.034699,  --- 60.738564
-0.047365,-0.01709,-0.996124,-0.355479,0.93997,0.203131,0.132817,-0.014649,-1.037629,  --- 61.738762
-0.0459,-0.003418,-0.992217,-0.341807,0.935575,0.216803,0.137699,-0.018067,-1.018585,  --- 63.131054
-0.0459,-0.003418,-0.992217,-0.341807,0.935575,0.216803,0.137699,-0.018067,-1.018585,  --- 64.131218
-0.050294,-0.008789,-1.004913,-0.35255,0.943388,0.212897,0.140629,-0.024903,-1.02884,  --- 65.131386
-0.050294,-0.008789,-1.004913,-0.35255,0.943388,0.212897,0.140629,-0.024903,-1.02884,  --- 66.131607
-0.053224,-0.006836,-0.978545,-0.357433,0.93704,0.211432,0.129887,-0.014649,-1.05179,  --- 67.131905
-0.053224,-0.006836,-0.978545,-0.357433,0.93704,0.211432,0.129887,-0.014649,-1.05179,  --- 68.132057
-0.054689,-0.004883,-0.999542,-0.35255,0.939481,0.20069,0.146489,-0.028321,-1.044953,  --- 69.132240
-0.054689,-0.004883,-0.999542,-0.35255,0.939481,0.20069,0.146489,-0.028321,-1.044953,  --- 70.132553
-0.055666,-0.001953,-0.9971,-0.34376,0.93704,0.202643,0.131352,-0.019532,-1.035676,  --- 71.132713
-0.055666,-0.001953,-0.9971,-0.34376,0.93704,0.202643,0.131352,-0.019532,-1.035676,  --- 72.323997
-0.049806,-0.012207,-0.994659,-0.355479,0.938505,0.22071,0.140629,-0.024415,-1.032746,  --- 73.324181
-0.053224,-0.003906,-0.98587,-0.350108,0.9429,0.218268,0.129398,-0.024903,-1.022492,  --- 74.327347
-0.053224,-0.003906,-0.98587,-0.350108,0.9429,0.218268,0.129398,-0.024903,-1.022492,  --- 75.327492
-0.052248,-0.010743,-0.995636,-0.344737,0.93118,0.210456,0.13477,-0.015625,-1.029328,  --- 76.327621
-0.052248,-0.010743,-0.995636,-0.344737,0.93118,0.210456,0.13477,-0.015625,-1.029328,  --- 77.338203
-0.055177,-0.011231,-0.979033,-0.350108,0.938505,0.21485,0.139653,-0.026856,-1.038117,  --- 78.360352
-0.055177,-0.011231,-0.979033,-0.350108,0.938505,0.21485,0.139653,-0.026856,-1.038117,  --- 79.360725
-0.0459,-0.008789,-0.989776,-0.357921,0.930692,0.218268,0.132817,-0.032228,-1.036164,  --- 80.360878
-0.0459,-0.008789,-0.989776,-0.357921,0.930692,0.218268,0.132817,-0.032228,-1.036164,  --- 81.361099
-0.052736,-0.010254,-0.985381,-0.349132,0.9429,0.207037,0.133305,-0.023927,-1.043,  --- 82.361336
-0.060549,-0.013184,-0.986358,-0.357921,0.919461,0.220221,0.146977,-0.030274,-1.037629,  --- 83.658218
-0.060549,-0.013184,-0.986358,-0.357921,0.919461,0.220221,0.146977,-0.030274,-1.037629,  --- 84.658386
-0.058107,0,-0.984893,-0.354015,0.93997,0.220221,0.136723,-0.030763,-1.021027,  --- 85.658546
-0.058107,0,-0.984893,-0.354015,0.93997,0.220221,0.136723,-0.030763,-1.021027,  --- 86.658813
-0.049318,-0.00293,-0.992706,-0.36378,0.922391,0.217292,0.127445,-0.006348,-1.016144,  --- 87.658936
-0.049318,-0.00293,-0.992706,-0.36378,0.922391,0.217292,0.127445,-0.006348,-1.016144,  --- 88.659378
-0.055666,-0.00586,-0.970732,-0.353526,0.940458,0.216803,0.137211,-0.033204,-1.033723,  --- 89.659561
-0.055666,-0.00586,-0.970732,-0.353526,0.940458,0.216803,0.137211,-0.033204,-1.033723,  --- 90.659782
-0.050783,-0.006836,-0.971221,-0.354015,0.930692,0.217292,0.141118,-0.025391,-1.027375,  --- 91.659935
-0.050783,-0.006836,-0.971221,-0.354015,0.930692,0.217292,0.141118,-0.025391,-1.027375,  --- 92.660080
-0.052736,-0.011719,-0.968291,-0.348643,0.943388,0.216803,0.139653,-0.021485,-1.032746,  --- 93.660301
-0.059084,-0.00586,-0.972197,-0.351085,0.923368,0.208502,0.138188,-0.019532,-1.050325,  --- 94.900360
-0.059084,-0.00586,-0.972197,-0.351085,0.923368,0.208502,0.138188,-0.019532,-1.050325,  --- 95.900520
-0.056642,-0.011719,-0.994659,-0.354503,0.931669,0.212897,0.142582,-0.029298,-1.035187,  --- 96.903198
-0.056642,-0.011719,-0.994659,-0.354503,0.931669,0.212897,0.142582,-0.029298,-1.035187,  --- 97.903465
-0.062014,-0.004395,-0.983428,-0.346202,0.944364,0.190435,0.13477,-0.016114,-1.027375,  --- 98.906319
-0.062014,-0.004395,-0.983428,-0.346202,0.944364,0.190435,0.13477,-0.016114,-1.027375,  --- 99.906639
-0.047853,-0.000977,-0.987334,-0.355968,0.91702,0.207037,0.140629,-0.021485,-1.038606,  --- 100.906944
-0.047853,-0.000977,-0.987334,-0.355968,0.91702,0.207037,0.140629,-0.021485,-1.038606,  --- 101.907127
-0.051759,-0.015137,-0.972197,-0.360362,0.943388,0.19776,0.142094,-0.013184,-1.032258,  --- 102.907265
-0.051759,-0.015137,-0.972197,-0.360362,0.943388,0.19776,0.142094,-0.013184,-1.032258,  --- 103.907494
-0.041505,-0.010743,-0.97415,-0.35255,0.918485,0.215827,0.146,-0.03711,-1.039094,  --- 104.907814
-0.041505,-0.010743,-0.97415,-0.35255,0.918485,0.215827,0.146,-0.03711,-1.039094,  --- 106.152763
-0.042482,-0.003906,-0.959502,-0.354015,0.9429,0.194342,0.136235,-0.030763,-1.019074,  --- 107.152901
-0.049806,-0.011719,-0.993682,-0.349132,0.913602,0.199713,0.14893,-0.016602,-1.035187,  --- 108.168228
-0.049806,-0.011719,-0.993682,-0.349132,0.913602,0.199713,0.14893,-0.016602,-1.035187,  --- 109.168358
-0.046876,-0.013184,-0.988311,-0.348155,0.940946,0.207526,0.140141,-0.027833,-1.033723,  --- 110.168526
-0.046876,-0.013184,-0.988311,-0.348155,0.940946,0.207526,0.140141,-0.027833,-1.033723,  --- 111.174393
-0.051759,-0.003418,-0.989776,-0.358898,0.917508,0.21485,0.125004,-0.030274,-1.031281,  --- 112.174660
-0.051759,-0.003418,-0.989776,-0.358898,0.917508,0.21485,0.125004,-0.030274,-1.031281,  --- 113.174789
-0.059084,-0.010254,-0.994659,-0.352061,0.941923,0.226569,0.140629,-0.00586,-1.044953,  --- 114.174927
-0.059084,-0.010254,-0.994659,-0.352061,0.941923,0.226569,0.140629,-0.00586,-1.044953,  --- 115.175087
-0.06299,-0.005371,-0.978057,-0.364757,0.935087,0.206549,0.142094,-0.024903,-1.023957,  --- 116.175316
-0.06299,-0.005371,-0.978057,-0.364757,0.935087,0.206549,0.142094,-0.024903,-1.023957,  --- 117.379967
-0.049806,-0.00586,-0.990753,-0.34376,0.944364,0.21485,0.132817,-0.028321,-1.043977,  --- 118.380150
-0.049806,-0.00586,-0.990753,-0.34376,0.944364,0.21485,0.132817,-0.028321,-1.043977,  --- 119.388428
-0.046388,0.000488,-0.992706,-0.359386,0.93997,0.206061,0.12598,-0.028321,-1.038117,  --- 120.388634
-0.054689,-0.012207,-1.003448,-0.354991,0.938017,0.199713,0.142094,-0.03711,-1.035676,  --- 121.388840
-0.054689,-0.012207,-1.003448,-0.354991,0.938017,0.199713,0.142094,-0.03711,-1.035676,  --- 122.389000
-0.056642,-0.001465,-0.998077,-0.354503,0.941923,0.205084,0.131352,-0.025391,-1.036164,  --- 123.389130
-0.056642,-0.001465,-0.998077,-0.354503,0.941923,0.205084,0.131352,-0.025391,-1.036164,  --- 124.389366
-0.051271,-0.001953,-0.984405,-0.355479,0.940458,0.207037,0.143559,-0.029298,-1.035187,  --- 125.389656
-0.051271,-0.001953,-0.984405,-0.355479,0.940458,0.207037,0.143559,-0.029298,-1.035187,  --- 126.389801
-0.056642,-0.012207,-0.988311,-0.361339,0.945829,0.209479,0.144536,-0.026856,-1.029328,  --- 127.389954
-0.056642,-0.012207,-0.988311,-0.361339,0.945829,0.209479,0.144536,-0.026856,-1.029328,  --- 128.390244
-0.059084,-0.010254,-0.996612,-0.361339,0.925321,0.210456,0.144536,-0.032228,-1.027863,  --- 129.390366
-0.059084,-0.010254,-0.996612,-0.361339,0.925321,0.210456,0.144536,-0.032228,-1.027863,  --- 130.676712
-0.051271,-0.005371,-0.988311,-0.348155,0.949247,0.205084,0.149419,-0.022462,-1.053254,  --- 131.676849
-0.046876,-0.014649,-0.993682,-0.360851,0.93118,0.215339,0.146489,-0.017579,-1.022004,  --- 132.677032
-0.046876,-0.014649,-0.993682,-0.360851,0.93118,0.215339,0.146489,-0.017579,-1.022004,  --- 133.677216
-0.054689,-0.009278,-0.98294,-0.354015,0.942411,0.192389,0.129887,-0.026856,-1.034211,  --- 134.677811
-0.054689,-0.009278,-0.98294,-0.354015,0.942411,0.192389,0.129887,-0.026856,-1.034211,  --- 135.683350
-0.047365,-0.011719,-0.978057,-0.357921,0.925321,0.215827,0.138676,-0.025391,-1.040559,  --- 136.683670
-0.047365,-0.011719,-0.978057,-0.357921,0.925321,0.215827,0.138676,-0.025391,-1.040559,  --- 137.683853
-0.058596,0.003906,-0.983916,-0.351573,0.939481,0.22071,0.142094,-0.035157,-1.037629,  --- 138.684036
-0.058596,0.003906,-0.983916,-0.351573,0.939481,0.22071,0.142094,-0.035157,-1.037629,  --- 139.684235
-0.044923,-0.003906,-0.98294,-0.363292,0.924833,0.21192,0.141606,-0.029786,-1.048371,  --- 140.684509
-0.044923,-0.003906,-0.98294,-0.363292,0.924833,0.21192,0.141606,-0.029786,-1.048371,  --- 141.948471
-0.045412,-0.008301,-0.977569,-0.350108,0.93118,0.19776,0.145512,-0.029298,-1.029816,  --- 142.948608
-0.054201,-0.020508,-0.978545,-0.353038,0.920926,0.206549,0.131352,-0.019044,-1.010284,  --- 143.948807
-0.054201,-0.020508,-0.978545,-0.353038,0.920926,0.206549,0.131352,-0.019044,-1.010284,  --- 144.949036
-0.042482,-0.003418,-0.983916,-0.345225,0.93118,0.198736,0.137211,-0.024415,-1.032258,  --- 145.949234
-0.042482,-0.003418,-0.983916,-0.345225,0.93118,0.198736,0.137211,-0.024415,-1.032258,  --- 146.949417
-0.049318,-0.011231,-0.994171,-0.354015,0.93704,0.203131,0.141606,-0.018067,-1.043,  --- 147.949615
-0.049318,-0.011231,-0.994171,-0.354015,0.93704,0.203131,0.141606,-0.018067,-1.043,  --- 148.949875
-0.055666,-0.004883,-0.998565,-0.357433,0.928739,0.208502,0.144536,-0.02002,-1.014679,  --- 149.950211
-0.055666,-0.004883,-0.998565,-0.357433,0.928739,0.208502,0.144536,-0.02002,-1.014679,  --- 150.950363
-0.055177,-0.014161,-0.994171,-0.345714,0.940458,0.212409,0.143559,-0.02588,-1.020539,  --- 151.950653
-0.055177,-0.014161,-0.994171,-0.345714,0.940458,0.212409,0.143559,-0.02588,-1.020539,  --- 153.235260
-0.050783,-0.013184,-0.999542,-0.356944,0.933134,0.222175,0.138676,-0.014649,-1.028351,  --- 154.235458
-0.056642,-0.002441,-0.984893,-0.355479,0.932645,0.204108,0.129398,-0.022462,-1.021515,  --- 155.235611
-0.056642,-0.002441,-0.984893,-0.355479,0.932645,0.204108,0.129398,-0.022462,-1.021515,  --- 156.235794
-0.053224,-0.009766,-0.970732,-0.351085,0.926786,0.209967,0.135746,-0.02002,-1.033234,  --- 157.235992
-0.053224,-0.009766,-0.970732,-0.351085,0.926786,0.209967,0.135746,-0.02002,-1.033234,  --- 158.236160
-0.060549,-0.007813,-0.97708,-0.347667,0.928251,0.200201,0.133793,-0.019044,-1.037629,  --- 159.236313
-0.060549,-0.007813,-0.97708,-0.347667,0.928251,0.200201,0.133793,-0.019044,-1.037629,  --- 160.236481
-0.052736,-0.013184,-0.97415,-0.367687,0.940458,0.203131,0.134281,-0.030274,-1.019074,  --- 161.236649
-0.052736,-0.013184,-0.97415,-0.367687,0.940458,0.203131,0.134281,-0.030274,-1.019074,  --- 162.236816
-0.049318,-0.004883,-0.991729,-0.351573,0.933134,0.207526,0.145512,-0.02295,-1.039582,  --- 163.237045
-0.054201,-0.013672,-0.98001,-0.355968,0.939481,0.221198,0.133305,-0.020508,-1.021027,  --- 164.558701
-0.054201,-0.013672,-0.98001,-0.355968,0.939481,0.221198,0.133305,-0.020508,-1.021027,  --- 165.558884
-0.058107,-0.012696,-0.990753,-0.354015,0.934599,0.206549,0.146977,-0.026856,-1.017609,  --- 166.559250
-0.058107,-0.012696,-0.990753,-0.354015,0.934599,0.206549,0.146977,-0.026856,-1.017609,  --- 167.559418
-0.051271,-0.01709,-0.98001,-0.348643,0.93411,0.207526,0.141606,-0.020508,-1.01712,  --- 168.559586
-0.051271,-0.01709,-0.98001,-0.348643,0.93411,0.207526,0.141606,-0.020508,-1.01712,  --- 169.559769
-0.052736,-0.007813,-0.965361,-0.358409,0.929227,0.217292,0.134281,-0.016602,-1.041535,  --- 170.559891
-0.052736,-0.007813,-0.965361,-0.358409,0.929227,0.217292,0.134281,-0.016602,-1.041535,  --- 171.560043
-0.049806,-0.008301,-0.992706,-0.352061,0.938505,0.192877,0.136235,-0.023438,-1.050325,  --- 172.560226
-0.049806,-0.008301,-0.992706,-0.352061,0.938505,0.192877,0.136235,-0.023438,-1.050325,  --- 173.560379
-0.058596,-0.00293,-0.984893,-0.347667,0.926786,0.208991,0.150883,-0.032228,-1.041047,  --- 174.560516
-0.058596,-0.00293,-0.984893,-0.347667,0.926786,0.208991,0.150883,-0.032228,-1.041047,  --- 175.825729
-0.055177,-0.010743,-0.989288,-0.356456,0.935575,0.214362,0.139164,-0.029298,-1.035187,  --- 176.825928
-0.051759,-0.003906,-0.984405,-0.356456,0.929716,0.216315,0.147465,-0.012207,-1.028351,  --- 177.826080
-0.051759,-0.003906,-0.984405,-0.356456,0.929716,0.216315,0.147465,-0.012207,-1.028351,  --- 178.826233
-0.058596,-0.013672,-0.989288,-0.342295,0.941923,0.211432,0.129887,-0.023927,-1.01712,  --- 179.826370
-0.058596,-0.013672,-0.989288,-0.342295,0.941923,0.211432,0.129887,-0.023927,-1.01712,  --- 180.826569
-0.0459,-0.007813,-0.97415,-0.348155,0.930204,0.216315,0.133793,-0.017579,-1.032746,  --- 181.829605
-0.0459,-0.007813,-0.97415,-0.348155,0.930204,0.216315,0.133793,-0.017579,-1.032746,  --- 182.830231
-0.052248,-0.020997,-0.981963,-0.357921,0.933134,0.209967,0.137699,-0.020508,-1.043489,  --- 183.830688
-0.052248,-0.020997,-0.981963,-0.357921,0.933134,0.209967,0.137699,-0.020508,-1.043489,  --- 184.830902
-0.049318,-0.025391,-0.980987,-0.349132,0.949247,0.193853,0.141118,-0.024415,-1.036652,  --- 185.831070
-0.050294,-0.009278,-0.986846,-0.355479,0.915067,0.225593,0.138188,-0.028321,-1.035676,  --- 187.136871
-0.050294,-0.009278,-0.986846,-0.355479,0.915067,0.225593,0.138188,-0.028321,-1.035676,  --- 188.137054
-0.051271,-0.02002,-0.989288,-0.35255,0.941923,0.213385,0.12891,-0.028809,-1.026886,  --- 189.137207
-0.051271,-0.02002,-0.989288,-0.35255,0.941923,0.213385,0.12891,-0.028809,-1.026886,  --- 190.137360
-0.048341,-0.010254,-0.981475,-0.348643,0.933134,0.220221,0.133793,-0.018555,-1.042512,  --- 191.137482
-0.048341,-0.010254,-0.981475,-0.348643,0.933134,0.220221,0.133793,-0.018555,-1.042512,  --- 192.137665
-0.054689,-0.003906,-0.994171,-0.353526,0.93997,0.220221,0.139164,-0.026368,-1.035187,  --- 193.137802
-0.054689,-0.003906,-0.994171,-0.353526,0.93997,0.220221,0.139164,-0.026368,-1.035187,  --- 194.137924
-0.062502,-0.003906,-0.986358,-0.347667,0.928251,0.213385,0.125004,-0.029786,-1.035676,  --- 195.148895
-0.062502,-0.003906,-0.986358,-0.347667,0.928251,0.213385,0.125004,-0.029786,-1.035676,  --- 196.149185
-0.046876,-0.011719,-0.981963,-0.34376,0.943876,0.210456,0.146489,-0.032228,-1.028351,  --- 197.149368
-0.056642,-0.002441,-0.988799,-0.353526,0.939481,0.21485,0.139653,-0.014161,-1.044953,  --- 198.402481
-0.056642,-0.002441,-0.988799,-0.353526,0.939481,0.21485,0.139653,-0.014161,-1.044953,  --- 199.402649
-0.054201,-0.007324,-0.992217,-0.35255,0.933622,0.204596,0.132817,-0.031251,-1.030793,  --- 200.402878
-0.054201,-0.007324,-0.992217,-0.35255,0.933622,0.204596,0.132817,-0.031251,-1.030793,  --- 201.403015
-0.050294,-0.012207,-0.984893,-0.35255,0.93411,0.200201,0.138676,-0.021485,-1.02298,  --- 202.404221
-0.050294,-0.012207,-0.984893,-0.35255,0.93411,0.200201,0.138676,-0.021485,-1.02298,  --- 203.404510
-0.042482,-0.008789,-0.989776,-0.352061,0.943876,0.208991,0.134281,-0.023927,-1.034699,  --- 204.404694
-0.042482,-0.008789,-0.989776,-0.352061,0.943876,0.208991,0.134281,-0.023927,-1.034699,  --- 205.404846
-0.0459,-0.001465,-0.994171,-0.357433,0.934599,0.208502,0.129398,-0.024415,-1.041535,  --- 206.405075
-0.0459,-0.001465,-0.994171,-0.357433,0.934599,0.208502,0.129398,-0.024415,-1.041535,  --- 207.405243
-0.048341,-0.00586,-0.978545,-0.354015,0.9429,0.193365,0.138676,-0.02295,-1.023468,  --- 208.405411
-0.048341,-0.00586,-0.978545,-0.354015,0.9429,0.193365,0.138676,-0.02295,-1.023468,  --- 209.614838
-0.051271,-0.008301,-0.978057,-0.356456,0.933134,0.21485,0.13477,-0.023927,-1.027375,  --- 210.615005
-0.050783,-0.012696,-0.993682,-0.351085,0.929716,0.205573,0.129887,-0.027345,-1.033723,  --- 211.615250
-0.050783,-0.012696,-0.993682,-0.351085,0.929716,0.205573,0.129887,-0.027345,-1.033723,  --- 212.615494
-0.044923,-0.010743,-0.991729,-0.344249,0.941923,0.207526,0.130375,-0.018555,-1.027863,  --- 213.615692
-0.044923,-0.010743,-0.991729,-0.344249,0.941923,0.207526,0.130375,-0.018555,-1.027863,  --- 214.616028
-0.046388,-0.014649,-0.999054,-0.35255,0.938505,0.197272,0.131352,-0.01709,-1.035187,  --- 215.616272
-0.046388,-0.014649,-0.999054,-0.35255,0.938505,0.197272,0.131352,-0.01709,-1.035187,  --- 216.616455
-0.06006,-0.008789,-0.978545,-0.354991,0.928739,0.203131,0.144536,-0.040529,-1.035676,  --- 217.616608
-0.06006,-0.008789,-0.978545,-0.354991,0.928739,0.203131,0.144536,-0.040529,-1.035676,  --- 218.616821
-0.055177,-0.011719,-0.976104,-0.35255,0.93118,0.216803,0.136723,-0.024415,-1.032746,  --- 219.617050
-0.052736,-0.008789,-0.995636,-0.353038,0.936552,0.210944,0.139164,-0.028809,-1.007843,  --- 220.877045
-0.052736,-0.008789,-0.995636,-0.353038,0.936552,0.210944,0.139164,-0.028809,-1.007843,  --- 221.877228
-0.045412,-0.00586,-0.988799,-0.357433,0.935575,0.207526,0.135258,-0.029786,-1.018585,  --- 222.877426
-0.045412,-0.00586,-0.988799,-0.357433,0.935575,0.207526,0.135258,-0.029786,-1.018585,  --- 223.877640
-0.048341,-0.010254,-0.984405,-0.356944,0.925809,0.203131,0.13184,-0.02588,-1.034699,  --- 224.877853
-0.048341,-0.010254,-0.984405,-0.356944,0.925809,0.203131,0.13184,-0.02588,-1.034699,  --- 225.878021
-0.049318,-0.00293,-0.987334,-0.349132,0.930692,0.206061,0.138676,-0.027345,-1.036164,  --- 226.878220
-0.049318,-0.00293,-0.987334,-0.349132,0.930692,0.206061,0.138676,-0.027345,-1.036164,  --- 227.878387
-0.050783,-0.007324,-0.97708,-0.353038,0.921414,0.212897,0.137211,-0.026856,-1.031769,  --- 228.878616
-0.050783,-0.007324,-0.97708,-0.353038,0.921414,0.212897,0.137211,-0.026856,-1.031769,  --- 229.878784
-0.059084,-0.009766,-0.994171,-0.34669,0.935575,0.196295,0.14893,-0.035157,-1.030305,  --- 230.878967
-0.056642,-0.017579,-0.986846,-0.354991,0.921414,0.206549,0.145024,-0.02588,-1.034699,  --- 232.136505
-0.056642,-0.017579,-0.986846,-0.354991,0.921414,0.206549,0.145024,-0.02588,-1.034699,  --- 233.136856
-0.058596,-0.011231,-0.987334,-0.34669,0.93118,0.209967,0.132817,-0.012696,-1.015656,  --- 234.141205
-0.058596,-0.011231,-0.987334,-0.34669,0.93118,0.209967,0.132817,-0.012696,-1.015656,  --- 235.141449
-0.058107,-0.009278,-0.988311,-0.359386,0.916043,0.208991,0.139164,-0.025391,-1.018585,  --- 236.141632
-0.058107,-0.009278,-0.988311,-0.359386,0.916043,0.208991,0.139164,-0.025391,-1.018585,  --- 237.141846
-0.054689,-0.006836,-0.996124,-0.348155,0.95413,0.183111,0.144536,-0.029298,-1.022004,  --- 238.142075
-0.054689,-0.006836,-0.996124,-0.348155,0.95413,0.183111,0.144536,-0.029298,-1.022004,  --- 239.142258
-0.050294,-0.004395,-0.97415,-0.350108,0.922391,0.221198,0.144047,-0.026368,-1.030305,  --- 240.142441
-0.050294,-0.004395,-0.97415,-0.350108,0.922391,0.221198,0.144047,-0.026368,-1.030305,  --- 241.142624
-0.049318,-0.016114,-0.990264,-0.351573,0.93997,0.209967,0.145512,-0.016602,-1.041535,  --- 242.142776
-0.052248,-0.014161,-0.990753,-0.34669,0.928251,0.213385,0.13477,-0.023927,-1.021027,  --- 243.386398
-0.052248,-0.014161,-0.990753,-0.34669,0.928251,0.213385,0.13477,-0.023927,-1.021027,  --- 244.386658
-0.0459,-0.012696,-0.9971,-0.34669,0.952665,0.20069,0.137211,-0.018555,-1.027375,  --- 245.386856
-0.0459,-0.012696,-0.9971,-0.34669,0.952665,0.20069,0.137211,-0.018555,-1.027375,  --- 246.387009
-0.050783,-0.012207,-0.980987,-0.357433,0.932157,0.212409,0.13477,-0.019044,-1.026398,  --- 247.387161
-0.050783,-0.012207,-0.980987,-0.357433,0.932157,0.212409,0.13477,-0.019044,-1.026398,  --- 248.387299
-0.064455,-0.013672,-0.981475,-0.357921,0.944364,0.205084,0.134281,-0.016114,-1.022492,  --- 249.387451
-0.064455,-0.013672,-0.981475,-0.357921,0.944364,0.205084,0.134281,-0.016114,-1.022492,  --- 250.387924
-0.046876,-0.00293,-0.984893,-0.356456,0.936552,0.221198,0.144047,-0.016602,-1.043489,  --- 251.388107
-0.046876,-0.00293,-0.984893,-0.356456,0.936552,0.221198,0.144047,-0.016602,-1.043489,  --- 252.388474
-0.062014,-0.009766,-0.990753,-0.357921,0.928251,0.192877,0.13477,-0.03711,-1.027863,  --- 253.388626
-0.052736,-0.013672,-0.983916,-0.36671,0.930692,0.219733,0.133793,-0.008301,-1.027375,  --- 254.626175
-0.052736,-0.013672,-0.983916,-0.36671,0.930692,0.219733,0.133793,-0.008301,-1.027375,  --- 255.626312
-0.049806,-0.000488,-0.97708,-0.354015,0.935575,0.211432,0.132817,-0.030274,-1.026398,  --- 256.626465
-0.049806,-0.000488,-0.97708,-0.354015,0.935575,0.211432,0.132817,-0.030274,-1.026398,  --- 257.626984
-0.056642,-0.007324,-0.983916,-0.361339,0.930692,0.214362,0.136723,-0.024903,-1.022492,  --- 258.627136
-0.056642,-0.007324,-0.983916,-0.361339,0.930692,0.214362,0.136723,-0.024903,-1.022492,  --- 259.627472
-0.052248,-0.010254,-0.992706,-0.35255,0.933622,0.216315,0.139653,-0.015137,-1.029816,  --- 260.628021
-0.052248,-0.010254,-0.992706,-0.35255,0.933622,0.216315,0.139653,-0.015137,-1.029816,  --- 261.628326
-0.055666,-0.013184,-0.984893,-0.355479,0.925809,0.20069,0.136235,-0.025391,-1.032746,  --- 262.628723
-0.050294,-0.003418,-0.980498,-0.340342,0.935575,0.203619,0.151372,-0.031739,-1.036652,  --- 263.916931
-0.050294,-0.003418,-0.980498,-0.340342,0.935575,0.203619,0.151372,-0.031739,-1.036652,  --- 264.917267
-0.055177,-0.009766,-0.991241,-0.352061,0.920926,0.216803,0.136235,-0.031251,-1.025422,  --- 265.917603
-0.055177,-0.009766,-0.991241,-0.352061,0.920926,0.216803,0.136235,-0.031251,-1.025422,  --- 266.918060
-0.046876,-0.016114,-0.994171,-0.346202,0.929716,0.203619,0.137699,-0.027345,-1.033234,  --- 267.918396
-0.046876,-0.016114,-0.994171,-0.346202,0.929716,0.203619,0.137699,-0.027345,-1.033234,  --- 268.918762
-0.041993,-0.00586,-0.990264,-0.349132,0.918485,0.211432,0.12598,-0.019532,-1.030305,  --- 269.919098
-0.041993,-0.00586,-0.990264,-0.349132,0.918485,0.211432,0.12598,-0.019532,-1.030305,  --- 270.919464
-0.050783,-0.016114,-1.007355,-0.359386,0.935087,0.214362,0.131352,-0.023438,-1.046418,  --- 271.919830
-0.050783,-0.016114,-1.007355,-0.359386,0.935087,0.214362,0.131352,-0.023438,-1.046418,  --- 272.920258
-0.059084,-0.005371,-0.988311,-0.348155,0.93704,0.198248,0.146977,-0.03711,-1.035187,  --- 273.920624
-0.059084,-0.005371,-0.988311,-0.348155,0.93704,0.198248,0.146977,-0.03711,-1.035187,  --- 275.189362
-0.055177,-0.008301,-0.994659,-0.358409,0.929227,0.21192,0.138188,-0.017579,-1.039582,  --- 276.189575
-0.041017,-0.014649,-0.987823,-0.345714,0.950224,0.214362,0.134281,-0.025391,-1.041535,  --- 277.189789
-0.041017,-0.014649,-0.987823,-0.345714,0.950224,0.214362,0.134281,-0.025391,-1.041535,  --- 278.190033
-0.06299,-0.00293,-0.982451,-0.347178,0.926786,0.222663,0.140629,-0.030763,-1.027375,  --- 279.190247
-0.06299,-0.00293,-0.982451,-0.347178,0.926786,0.222663,0.140629,-0.030763,-1.027375,  --- 280.190491
-0.059084,0.000977,-0.986846,-0.351085,0.941435,0.21485,0.141118,-0.025391,-1.038117,  --- 281.190704
-0.059084,0.000977,-0.986846,-0.351085,0.941435,0.21485,0.141118,-0.025391,-1.038117,  --- 282.190918
-0.066897,-0.009278,-0.978545,-0.351573,0.927274,0.206061,0.138188,-0.021973,-1.035676,  --- 283.191223
-0.066897,-0.009278,-0.978545,-0.351573,0.927274,0.206061,0.138188,-0.021973,-1.035676,  --- 284.191437
-0.051271,-0.001953,-0.993194,-0.365245,0.946318,0.22071,0.139164,-0.032716,-1.034211,  --- 285.191620
-0.051271,-0.013672,-0.984405,-0.355968,0.924833,0.215339,0.12891,-0.016114,-1.032746,  --- 286.520691
-0.051271,-0.013672,-0.984405,-0.355968,0.924833,0.215339,0.12891,-0.016114,-1.032746,  --- 287.520966
-0.052736,-0.011719,-0.993682,-0.356456,0.93704,0.22071,0.149419,-0.028809,-1.051301,  --- 288.521149
-0.052736,-0.011719,-0.993682,-0.356456,0.93704,0.22071,0.149419,-0.028809,-1.051301,  --- 289.521423
-0.044435,-0.003418,-0.987823,-0.354015,0.936552,0.219733,0.142094,-0.029786,-1.032746,  --- 290.521851
-0.044435,-0.003418,-0.987823,-0.354015,0.936552,0.219733,0.142094,-0.029786,-1.032746,  --- 291.522064
-0.046876,-0.000977,-0.983428,-0.355968,0.924344,0.202643,0.135258,-0.027833,-1.021515,  --- 292.522278
-0.046876,-0.000977,-0.983428,-0.355968,0.924344,0.202643,0.135258,-0.027833,-1.021515,  --- 293.522461
-0.064943,0.000977,-0.991729,-0.360851,0.93411,0.212409,0.145024,-0.026368,-1.030793,  --- 294.522675
-0.064943,0.000977,-0.991729,-0.360851,0.93411,0.212409,0.145024,-0.026368,-1.030793,  --- 295.522888
-0.057619,-0.000977,-0.980987,-0.363292,0.944364,0.20069,0.135258,-0.020997,-1.02884,  --- 296.523071
-0.051271,0.002441,-0.986358,-0.355968,0.935087,0.207526,0.141118,-0.028809,-1.038117,  --- 297.767151
-0.051271,0.002441,-0.986358,-0.355968,0.935087,0.207526,0.141118,-0.028809,-1.038117,  --- 298.767395
-0.055177,-0.006836,-0.996124,-0.356456,0.917508,0.217292,0.136723,-0.029298,-1.021515,  --- 299.767578
-0.055177,-0.006836,-0.996124,-0.356456,0.917508,0.217292,0.136723,-0.029298,-1.021515,  --- 300.767761
-0.067385,-0.001953,-0.971709,-0.34962,0.936063,0.20069,0.133305,-0.02588,-1.018585,  --- 301.767914
-0.067385,-0.001953,-0.971709,-0.34962,0.936063,0.20069,0.133305,-0.02588,-1.018585,  --- 302.768066
-0.056154,-0.003906,-0.981963,-0.356944,0.93118,0.207037,0.139653,-0.022462,-1.034211,  --- 303.768219
-0.056154,-0.003906,-0.981963,-0.356944,0.93118,0.207037,0.139653,-0.022462,-1.034211,  --- 304.768372
-0.056642,-0.006836,-0.981475,-0.348643,0.925809,0.204596,0.133793,-0.021973,-1.024933,  --- 305.768555
-0.056642,-0.006836,-0.981475,-0.348643,0.925809,0.204596,0.133793,-0.021973,-1.024933,  --- 306.768677
-0.063478,-0.010254,-0.994659,-0.360362,0.93118,0.210944,0.129887,-0.014649,-1.021515,  --- 307.768829
-0.062014,-0.011719,-0.978057,-0.365245,0.930692,0.209967,0.146,-0.036134,-1.028351,  --- 309.052399
-0.062014,-0.011719,-0.978057,-0.365245,0.930692,0.209967,0.146,-0.036134,-1.028351,  --- 310.052612
-0.041505,-0.004395,-0.980498,-0.354015,0.928251,0.198736,0.144536,-0.024903,-1.028351,  --- 311.052795
-0.041505,-0.004395,-0.980498,-0.354015,0.928251,0.198736,0.144536,-0.024903,-1.028351,  --- 312.052979
-0.055666,-0.016602,-0.969756,-0.354991,0.936552,0.219733,0.142582,-0.029298,-1.043,  --- 313.053192
-0.055666,-0.016602,-0.969756,-0.354991,0.936552,0.219733,0.142582,-0.029298,-1.043,  --- 314.053345
-0.045412,-0.013184,-0.986358,-0.360851,0.933622,0.19776,0.147954,-0.031739,-1.04007,  --- 315.053711
-0.045412,-0.013184,-0.986358,-0.360851,0.933622,0.19776,0.147954,-0.031739,-1.04007,  --- 316.053864
-0.050294,-0.013184,-0.9971,-0.34962,0.929716,0.21192,0.140141,-0.021485,-1.024933,  --- 317.054108
-0.050294,-0.013184,-0.9971,-0.34962,0.929716,0.21192,0.140141,-0.021485,-1.024933,  --- 318.054230
-0.062014,-0.012696,-0.98294,-0.350108,0.938505,0.224128,0.144536,-0.031739,-1.020539,  --- 319.054382
-0.052736,-0.003906,-0.990264,-0.354015,0.9429,0.21485,0.146,-0.024903,-1.029328,  --- 320.334167
-0.052736,-0.003906,-0.990264,-0.354015,0.9429,0.21485,0.146,-0.024903,-1.029328,  --- 321.334351
-0.049318,-0.007324,-0.992217,-0.351085,0.933622,0.198736,0.13477,-0.031251,-1.036164,  --- 322.334503
-0.049318,-0.007324,-0.992217,-0.351085,0.933622,0.198736,0.13477,-0.031251,-1.036164,  --- 323.334625
-0.045412,-0.012696,-0.999054,-0.356944,0.929716,0.22071,0.146489,-0.029786,-1.027863,  --- 324.334778
-0.045412,-0.012696,-0.999054,-0.356944,0.929716,0.22071,0.146489,-0.029786,-1.027863,  --- 325.334991
-0.057619,-0.011719,-0.989776,-0.362316,0.944364,0.209967,0.143071,-0.02295,-1.036164,  --- 326.335144
-0.057619,-0.011719,-0.989776,-0.362316,0.944364,0.209967,0.143071,-0.02295,-1.036164,  --- 327.335388
-0.053713,-0.011231,-0.996612,-0.350108,0.920438,0.228034,0.137211,-0.026368,-1.039582,  --- 328.335724
-0.053713,-0.011231,-0.996612,-0.350108,0.920438,0.228034,0.137211,-0.026368,-1.039582,  --- 329.534027
-0.047853,-0.004395,-0.971709,-0.354991,0.940458,0.205573,0.139653,-0.026856,-1.023468,  --- 330.534210
-0.047853,-0.004395,-0.971709,-0.354991,0.940458,0.205573,0.139653,-0.026856,-1.023468,  --- 331.539520
-0.052736,-0.004883,-0.990753,-0.362316,0.928739,0.216315,0.136235,-0.023438,-1.036652,  --- 332.539886
-0.049318,-0.007813,-0.971709,-0.354503,0.940946,0.206549,0.147954,-0.028321,-1.038606,  --- 333.540192
-0.049318,-0.007813,-0.971709,-0.354503,0.940946,0.206549,0.147954,-0.028321,-1.038606,  --- 334.540497
-0.056154,-0.008301,-0.993194,-0.345714,0.927274,0.213385,0.144047,-0.018555,-1.029816,  --- 335.540710
-0.056154,-0.008301,-0.993194,-0.345714,0.927274,0.213385,0.144047,-0.018555,-1.029816,  --- 336.540894
-0.065432,-0.008301,-0.975615,-0.356456,0.933622,0.208502,0.137699,-0.027345,-1.023957,  --- 337.541046
-0.065432,-0.008301,-0.975615,-0.356456,0.933622,0.208502,0.137699,-0.027345,-1.023957,  --- 338.541260
-0.050783,-0.009278,-0.983428,-0.362316,0.928739,0.203619,0.136723,-0.019044,-1.038117,  --- 339.541412
-0.050783,-0.009278,-0.983428,-0.362316,0.928739,0.203619,0.136723,-0.019044,-1.038117,  --- 340.541565
-0.052248,0.000977,-0.993194,-0.354991,0.930204,0.197272,0.136723,-0.021973,-1.019562,  --- 341.541687
-0.054689,0.001465,-0.974639,-0.354015,0.921903,0.19483,0.131352,-0.019532,-1.036652,  --- 342.796295
-0.054689,0.001465,-0.974639,-0.354015,0.921903,0.19483,0.131352,-0.019532,-1.036652,  --- 343.796448
-0.047853,-0.010743,-0.986358,-0.358409,0.949247,0.203131,0.140629,-0.028809,-1.034211,  --- 344.796600
-0.047853,-0.010743,-0.986358,-0.358409,0.949247,0.203131,0.140629,-0.028809,-1.034211,  --- 345.796753
-0.056154,-0.020508,-0.972686,-0.348643,0.930204,0.218268,0.146977,-0.019044,-1.02884,  --- 346.799408
-0.056154,-0.020508,-0.972686,-0.348643,0.930204,0.218268,0.146977,-0.019044,-1.02884,  --- 347.799805
-0.051271,-0.010743,-0.989288,-0.354503,0.93997,0.201666,0.138676,-0.023927,-1.043489,  --- 348.799957
-0.051271,-0.010743,-0.989288,-0.354503,0.93997,0.201666,0.138676,-0.023927,-1.043489,  --- 349.800415
-0.054201,-0.00586,-0.984405,-0.349132,0.941923,0.205573,0.140141,-0.027833,-1.032746,  --- 350.800598
-0.059084,-0.010743,-0.988311,-0.351085,0.924833,0.221686,0.135746,-0.019532,-1.039094,  --- 352.138458
-0.059084,-0.010743,-0.988311,-0.351085,0.924833,0.221686,0.135746,-0.019532,-1.039094,  --- 353.138672
-0.050783,-0.003418,-0.979033,-0.356456,0.934599,0.209479,0.136235,-0.027833,-1.027375,  --- 354.138916
-0.050783,-0.003418,-0.979033,-0.356456,0.934599,0.209479,0.136235,-0.027833,-1.027375,  --- 355.139282
-0.055666,-0.006836,-0.975615,-0.342295,0.935087,0.199225,0.145024,-0.020508,-1.036164,  --- 356.139465
-0.055666,-0.006836,-0.975615,-0.342295,0.935087,0.199225,0.145024,-0.020508,-1.036164,  --- 357.139648
-0.051759,-0.00293,-0.986358,-0.356456,0.917508,0.218757,0.135746,-0.018555,-1.02884,  --- 358.139862
-0.051759,-0.00293,-0.986358,-0.356456,0.917508,0.218757,0.135746,-0.018555,-1.02884,  --- 359.140045
-0.054689,0.000977,-0.984893,-0.350108,0.945829,0.211432,0.135746,-0.030274,-1.025422,  --- 360.140259
-0.054689,0.000977,-0.984893,-0.350108,0.945829,0.211432,0.135746,-0.030274,-1.025422,  --- 361.447052
-0.044435,-0.012696,-0.993194,-0.354503,0.93997,0.210944,0.137211,-0.027833,-1.031281,  --- 362.447235
-0.047853,-0.012207,-0.986358,-0.36378,0.935087,0.203131,0.135746,-0.021485,-1.057649,  --- 363.447418
-0.047853,-0.012207,-0.986358,-0.36378,0.935087,0.203131,0.135746,-0.021485,-1.057649,  --- 364.447662
-0.042482,0.000488,-0.993682,-0.354503,0.943876,0.20069,0.138676,-0.024903,-1.036652,  --- 365.447876
-0.042482,0.000488,-0.993682,-0.354503,0.943876,0.20069,0.138676,-0.024903,-1.036652,  --- 366.448151
-0.059084,-0.02002,-0.999542,-0.359386,0.923856,0.21778,0.140141,-0.02295,-1.035676,  --- 367.448334
-0.059084,-0.02002,-0.999542,-0.359386,0.923856,0.21778,0.140141,-0.02295,-1.035676,  --- 368.448547
-0.047365,-0.012207,-0.983428,-0.352061,0.927762,0.195807,0.135746,-0.031251,-1.038117,  --- 369.448730
-0.047365,-0.012207,-0.983428,-0.352061,0.927762,0.195807,0.135746,-0.031251,-1.038117,  --- 370.448944
-0.048341,0.003906,-0.996124,-0.363292,0.93411,0.215339,0.141606,-0.020997,-1.019562,  --- 371.449158
-0.048341,0.003906,-0.996124,-0.363292,0.93411,0.215339,0.141606,-0.020997,-1.019562,  --- 372.727783
-0.045412,-0.003418,-0.984405,-0.357433,0.949736,0.211432,0.134281,-0.015625,-1.024445,  --- 373.727966
-0.062502,-0.003906,-0.994659,-0.347667,0.923368,0.205084,0.137211,-0.015137,-1.036164,  --- 374.759430
-0.062502,-0.003906,-0.994659,-0.347667,0.923368,0.205084,0.137211,-0.015137,-1.036164,  --- 375.759644
-0.061525,-0.008789,-0.994171,-0.355479,0.944364,0.21485,0.149907,-0.020997,-1.029816,  --- 376.759857
-0.061525,-0.008789,-0.994171,-0.355479,0.944364,0.21485,0.149907,-0.020997,-1.029816,  --- 377.760040
-0.050294,-0.003418,-0.987823,-0.351085,0.926786,0.205573,0.143559,-0.020997,-1.038117,  --- 378.760193
-0.050294,-0.003418,-0.987823,-0.351085,0.926786,0.205573,0.143559,-0.020997,-1.038117,  --- 379.760345
-0.043947,-0.009766,-0.973174,-0.353526,0.935087,0.220221,0.139164,-0.031739,-1.029328,  --- 380.760529
-0.043947,-0.009766,-0.973174,-0.353526,0.935087,0.220221,0.139164,-0.031739,-1.029328,  --- 381.763794
-0.047365,-0.02002,-0.983428,-0.34669,0.922391,0.206549,0.130375,-0.024903,-1.027375,  --- 382.764099
-0.048341,-0.005371,-0.986846,-0.340342,0.935087,0.20069,0.138676,-0.017579,-1.030793,  --- 384.046448
-0.048341,-0.005371,-0.986846,-0.340342,0.935087,0.20069,0.138676,-0.017579,-1.030793,  --- 385.046631
-0.047365,-0.009278,-0.986358,-0.35255,0.933134,0.205573,0.141606,-0.032716,-1.035676,  --- 386.046814
-0.047365,-0.009278,-0.986358,-0.35255,0.933134,0.205573,0.141606,-0.032716,-1.035676,  --- 387.047028
-0.047853,-0.007324,-0.985381,-0.346202,0.936552,0.203619,0.142094,-0.018555,-1.026886,  --- 388.047241
-0.047853,-0.007324,-0.985381,-0.346202,0.936552,0.203619,0.142094,-0.018555,-1.026886,  --- 389.047455
-0.055177,-0.020997,-0.979033,-0.344737,0.933622,0.210456,0.146,-0.031251,-1.034211,  --- 390.047638
-0.055177,-0.020997,-0.979033,-0.344737,0.933622,0.210456,0.146,-0.031251,-1.034211,  --- 391.047852
-0.0459,-0.011231,-0.97708,-0.352061,0.941435,0.213385,0.137699,-0.022462,-1.036164,  --- 392.048035
-0.0459,-0.011231,-0.97708,-0.352061,0.941435,0.213385,0.137699,-0.022462,-1.036164,  --- 393.325317
-0.053224,-0.021973,-0.990264,-0.358898,0.931669,0.218757,0.144047,-0.028809,-1.031281,  --- 394.325470
-0.053224,-0.007813,-0.987334,-0.348643,0.927762,0.209967,0.136723,-0.021485,-1.033723,  --- 395.325653
-0.053224,-0.007813,-0.987334,-0.348643,0.927762,0.209967,0.136723,-0.021485,-1.033723,  --- 396.325867
-0.064943,0.001465,-1.003448,-0.355968,0.937528,0.222175,0.141606,-0.024903,-1.034699,  --- 397.343201
-0.064943,0.001465,-1.003448,-0.355968,0.937528,0.222175,0.141606,-0.024903,-1.034699,  --- 398.343414
-0.051271,-0.011719,-0.986846,-0.356456,0.9429,0.199225,0.136235,-0.013672,-1.02298,  --- 399.343628
-0.051271,-0.011719,-0.986846,-0.356456,0.9429,0.199225,0.136235,-0.013672,-1.02298,  --- 400.343842
-0.051271,-0.011231,-0.981963,-0.349132,0.93997,0.214362,0.141606,-0.034669,-1.041047,  --- 401.344025
-0.051271,-0.011231,-0.981963,-0.349132,0.93997,0.214362,0.141606,-0.034669,-1.041047,  --- 402.344269
-0.055666,-0.008301,-0.9971,-0.354015,0.939481,0.21192,0.13184,-0.027345,-1.038606,  --- 403.344452
-0.047853,-0.009278,-0.984893,-0.357921,0.93997,0.210944,0.146,-0.032716,-1.034699,  --- 404.580322
-0.047853,-0.009278,-0.984893,-0.357921,0.93997,0.210944,0.146,-0.032716,-1.034699,  --- 405.580505
-0.058596,-0.012207,-0.994171,-0.362804,0.933134,0.215339,0.134281,-0.027345,-1.037629,  --- 406.580688
-0.058596,-0.012207,-0.994171,-0.362804,0.933134,0.215339,0.134281,-0.027345,-1.037629,  --- 407.580872
-0.064943,-0.00586,-0.994659,-0.347178,0.938017,0.198736,0.146,-0.026368,-1.029816,  --- 408.581055
-0.064943,-0.00586,-0.994659,-0.347178,0.938017,0.198736,0.146,-0.026368,-1.029816,  --- 409.581238
-0.053224,-0.016602,-0.991241,-0.348643,0.924344,0.232429,0.143559,-0.025391,-1.032746,  --- 410.581451
-0.053224,-0.016602,-0.991241,-0.348643,0.924344,0.232429,0.143559,-0.025391,-1.032746,  --- 411.581696
-0.046388,-0.008789,-0.984893,-0.339854,0.952665,0.202643,0.143559,-0.031739,-1.049836,  --- 412.581909
-0.046388,-0.008789,-0.984893,-0.339854,0.952665,0.202643,0.143559,-0.031739,-1.049836,  --- 413.582092
-0.052248,-0.004395,-0.9971,-0.357921,0.921903,0.207526,0.144047,-0.025391,-1.043977,  --- 414.582275
-0.054201,0.000977,-0.986358,-0.351085,0.943388,0.210944,0.149419,-0.033204,-1.030305,  --- 415.852142
-0.054201,0.000977,-0.986358,-0.351085,0.943388,0.210944,0.149419,-0.033204,-1.030305,  --- 416.852356
-0.053224,-0.009766,-0.994171,-0.353526,0.926786,0.213385,0.150395,-0.024415,-1.029816,  --- 417.852600
-0.053224,-0.009766,-0.994171,-0.353526,0.926786,0.213385,0.150395,-0.024415,-1.029816,  --- 418.852814
-0.047365,-0.008301,-0.988311,-0.347667,0.9429,0.205573,0.146489,-0.018555,-1.02005,  --- 419.853027
-0.047365,-0.008301,-0.988311,-0.347667,0.9429,0.205573,0.146489,-0.018555,-1.02005,  --- 420.853210
-0.058596,-0.012696,-0.988311,-0.353526,0.938017,0.224128,0.146489,-0.031251,-1.025422,  --- 421.853333
-0.058596,-0.012696,-0.988311,-0.353526,0.938017,0.224128,0.146489,-0.031251,-1.025422,  --- 422.853485
-0.051759,-0.017579,-0.988799,-0.343272,0.940458,0.210944,0.136235,-0.026856,-1.044465,  --- 423.853699
-0.051759,-0.017579,-0.988799,-0.343272,0.940458,0.210944,0.136235,-0.026856,-1.044465,  --- 424.853912
-0.054201,-0.002441,-0.982451,-0.35255,0.923856,0.199713,0.138676,-0.031739,-1.020539,  --- 425.854065
-0.055666,-0.010743,-0.991241,-0.351085,0.943876,0.207037,0.142582,-0.031739,-1.026398,  --- 427.131378
-0.055666,-0.010743,-0.991241,-0.351085,0.943876,0.207037,0.142582,-0.031739,-1.026398,  --- 428.131531
-0.051759,-0.008301,-0.983428,-0.354015,0.93411,0.199225,0.136723,-0.027833,-1.029328,  --- 429.131653
-0.051759,-0.008301,-0.983428,-0.354015,0.93411,0.199225,0.136723,-0.027833,-1.029328,  --- 430.131805
-0.055177,-0.013672,-0.991729,-0.348643,0.936552,0.206061,0.136723,-0.019044,-1.030305,  --- 431.131958
-0.055177,-0.013672,-0.991729,-0.348643,0.936552,0.206061,0.136723,-0.019044,-1.030305,  --- 432.132111
-0.053224,-0.012696,-0.979522,-0.353526,0.934599,0.215827,0.143071,-0.014161,-1.024445,  --- 433.150787
-0.053224,-0.012696,-0.979522,-0.353526,0.934599,0.215827,0.143071,-0.014161,-1.024445,  --- 434.151215
-0.052248,-0.006836,-0.994171,-0.351573,0.940458,0.201178,0.140629,-0.018555,-1.04593,  --- 435.151520
-0.052248,-0.006836,-0.994171,-0.351573,0.940458,0.201178,0.140629,-0.018555,-1.04593,  --- 436.451752
-0.053224,-0.015137,-0.987334,-0.362316,0.936063,0.206549,0.140141,-0.027345,-1.038117,  --- 437.451874
-0.051759,-0.005371,-0.988799,-0.356944,0.936552,0.215339,0.134281,-0.012207,-1.046418,  --- 438.452148
-0.051759,-0.005371,-0.988799,-0.356944,0.936552,0.215339,0.134281,-0.012207,-1.046418,  --- 439.452301
-0.052736,-0.011231,-0.981963,-0.358409,0.933134,0.210944,0.143071,-0.016114,-1.029328,  --- 440.452423
-0.052736,-0.011231,-0.981963,-0.358409,0.933134,0.210944,0.143071,-0.016114,-1.029328,  --- 441.452667
-0.052248,-0.002441,-0.990264,-0.357921,0.933622,0.211432,0.139653,-0.029298,-1.003448,  --- 442.452942
-0.052248,-0.002441,-0.990264,-0.357921,0.933622,0.211432,0.139653,-0.029298,-1.003448,  --- 443.453156
-0.054201,-0.008301,-0.990753,-0.360362,0.937528,0.205573,0.141606,-0.029786,-1.030793,  --- 444.453369
-0.054201,-0.008301,-0.990753,-0.360362,0.937528,0.205573,0.141606,-0.029786,-1.030793,  --- 445.453522
-0.052736,0.00293,-0.97415,-0.351573,0.930204,0.208991,0.138188,-0.022462,-1.026398,  --- 446.453644
-0.052736,0.00293,-0.97415,-0.351573,0.930204,0.208991,0.138188,-0.022462,-1.026398,  --- 447.627533
-0.058107,-0.014161,-0.979522,-0.362804,0.927274,0.206061,0.141118,-0.028321,-1.038117,  --- 448.627808
-0.050294,-0.007813,-0.979033,-0.34962,0.935575,0.199713,0.143071,-0.024415,-1.026886,  --- 449.681793
-0.050294,-0.007813,-0.979033,-0.34962,0.935575,0.199713,0.143071,-0.024415,-1.026886,  --- 450.682190
-0.047853,0,-0.992706,-0.353038,0.924833,0.216803,0.140629,-0.029786,-1.02298,  --- 451.682495
-0.047853,0,-0.992706,-0.353038,0.924833,0.216803,0.140629,-0.029786,-1.02298,  --- 452.686646
-0.049806,-0.005371,-0.980987,-0.352061,0.93997,0.201666,0.128422,-0.01709,-1.030793,  --- 453.686798
-0.049806,-0.005371,-0.980987,-0.352061,0.93997,0.201666,0.128422,-0.01709,-1.030793,  --- 454.687073
-0.053713,-0.009278,-0.979033,-0.355968,0.922391,0.21485,0.151372,-0.030274,-1.033723,  --- 455.687256
-0.053713,-0.009278,-0.979033,-0.355968,0.922391,0.21485,0.151372,-0.030274,-1.033723,  --- 456.687439
-0.044435,-0.003906,-0.98001,-0.345225,0.936552,0.19776,0.141606,-0.027833,-1.038117,  --- 457.687561
-0.044435,-0.003906,-0.98001,-0.345225,0.936552,0.19776,0.141606,-0.027833,-1.038117,  --- 458.687714
-0.041993,-0.002441,-0.991241,-0.353038,0.916043,0.207526,0.139653,-0.022462,-1.034211,  --- 459.687866
-0.053224,-0.014161,-0.971221,-0.355968,0.938017,0.206061,0.13477,-0.036134,-1.036652,  --- 461.016327
-0.053224,-0.014161,-0.971221,-0.355968,0.938017,0.206061,0.13477,-0.036134,-1.036652,  --- 462.016479
-0.06006,-0.008301,-0.978545,-0.359386,0.93411,0.204108,0.137699,-0.019044,-1.043977,  --- 463.016632
-0.06006,-0.008301,-0.978545,-0.359386,0.93411,0.204108,0.137699,-0.019044,-1.043977,  --- 464.016754
-0.056154,-0.014161,-0.987334,-0.358409,0.938505,0.216315,0.133793,-0.028321,-1.040559,  --- 465.016968
-0.056154,-0.014161,-0.987334,-0.358409,0.938505,0.216315,0.133793,-0.028321,-1.040559,  --- 466.017242
-0.044923,-0.004883,-0.979033,-0.354991,0.936552,0.211432,0.142094,-0.036134,-1.035676,  --- 467.017456
-0.044923,-0.004883,-0.979033,-0.354991,0.936552,0.211432,0.142094,-0.036134,-1.035676,  --- 468.017761
-0.048341,-0.015625,-0.994171,-0.363292,0.930204,0.201178,0.138188,-0.02588,-1.039094,  --- 469.018036
-0.056642,-0.004883,-0.967314,-0.356456,0.941435,0.20069,0.136723,-0.033204,-1.042024,  --- 470.365936
-0.056642,-0.004883,-0.967314,-0.356456,0.941435,0.20069,0.136723,-0.033204,-1.042024,  --- 471.366089
-0.051271,-0.009278,-0.983428,-0.362804,0.924344,0.21485,0.147954,-0.02002,-1.036652,  --- 472.366241
-0.051271,-0.009278,-0.983428,-0.362804,0.924344,0.21485,0.147954,-0.02002,-1.036652,  --- 473.366394
-0.049806,-0.011719,-0.994171,-0.348155,0.938505,0.214362,0.140629,-0.028321,-1.041047,  --- 474.366547
-0.049806,-0.011719,-0.994171,-0.348155,0.938505,0.214362,0.140629,-0.028321,-1.041047,  --- 475.366699
-0.047853,-0.010254,-0.98587,-0.363292,0.928739,0.208991,0.138676,-0.027833,-1.029328,  --- 476.366852
-0.047853,-0.010254,-0.98587,-0.363292,0.928739,0.208991,0.138676,-0.027833,-1.029328,  --- 477.367004
-0.055177,-0.011719,-0.989776,-0.356944,0.943876,0.207037,0.137699,-0.024903,-1.027863,  --- 478.367157
-0.055177,-0.011719,-0.989776,-0.356944,0.943876,0.207037,0.137699,-0.024903,-1.027863,  --- 479.367310
-0.052248,-0.000977,-0.986358,-0.360362,0.927762,0.215827,0.144047,-0.011719,-1.02298,  --- 480.367432
-0.056642,-0.007324,-0.9971,-0.350108,0.93411,0.203619,0.145024,-0.032716,-1.033234,  --- 481.624969
-0.056642,-0.007324,-0.9971,-0.350108,0.93411,0.203619,0.145024,-0.032716,-1.033234,  --- 482.625275
-0.043947,-0.000488,-0.97415,-0.34669,0.930204,0.204596,0.130375,-0.030274,-1.024445,  --- 483.625549
-0.043947,-0.000488,-0.97415,-0.34669,0.930204,0.204596,0.130375,-0.030274,-1.024445,  --- 484.626038
-0.061525,-0.014161,-0.988311,-0.34962,0.927274,0.210944,0.136235,-0.019532,-1.024933,  --- 485.626251
-0.061525,-0.014161,-0.988311,-0.34962,0.927274,0.210944,0.136235,-0.019532,-1.024933,  --- 486.626465
-0.06006,-0.014649,-0.979522,-0.345714,0.930204,0.215827,0.135746,-0.023927,-1.02005,  --- 487.626617
-0.06006,-0.014649,-0.979522,-0.345714,0.930204,0.215827,0.135746,-0.023927,-1.02005,  --- 488.626801
-0.052248,-0.003906,-0.990264,-0.354503,0.923368,0.226081,0.136235,-0.016114,-1.036652,  --- 489.626953
-0.052248,-0.003906,-0.990264,-0.354503,0.923368,0.226081,0.136235,-0.016114,-1.036652,  --- 490.627106
-0.047853,-0.007324,-0.983916,-0.354503,0.93118,0.206549,0.131352,-0.034669,-1.032258,  --- 491.627258
-0.047853,-0.007324,-0.983916,-0.354503,0.93118,0.206549,0.131352,-0.034669,-1.032258,  --- 492.886597
-0.0459,-0.013184,-0.990753,-0.353038,0.916532,0.206549,0.135258,-0.034181,-1.036164,  --- 493.886749
-0.055177,-0.007324,-0.989288,-0.355479,0.940946,0.206061,0.139164,-0.020508,-1.027375,  --- 494.886871
-0.055177,-0.007324,-0.989288,-0.355479,0.940946,0.206061,0.139164,-0.020508,-1.027375,  --- 495.887054
-0.049806,-0.006836,-0.98587,-0.355968,0.91116,0.215827,0.139164,-0.032228,-1.026398,  --- 496.887207
-0.049806,-0.006836,-0.98587,-0.355968,0.91116,0.215827,0.139164,-0.032228,-1.026398,  --- 497.890747
-0.049318,-0.012696,-0.987334,-0.35255,0.932645,0.215827,0.132328,-0.021973,-1.034699,  --- 498.905640
-0.049318,-0.012696,-0.987334,-0.35255,0.932645,0.215827,0.132328,-0.021973,-1.034699,  --- 499.905945
-0.054689,-0.007813,-0.989776,-0.36378,0.91995,0.220221,0.135746,-0.02588,-1.034211,  --- 500.906189
-0.054689,-0.007813,-0.989776,-0.36378,0.91995,0.220221,0.135746,-0.02588,-1.034211,  --- 501.906433
-0.050294,-0.013672,-0.990264,-0.355968,0.940458,0.194342,0.133793,-0.027833,-1.038606,  --- 502.906647
-0.043947,-0.003418,-0.977569,-0.363292,0.939481,0.214362,0.142582,-0.027833,-1.029328,  --- 504.165222
-0.043947,-0.003418,-0.977569,-0.363292,0.939481,0.214362,0.142582,-0.027833,-1.029328,  --- 505.165405
-0.059084,-0.008789,-0.986846,-0.354015,0.933622,0.205573,0.140629,-0.029786,-1.032746,  --- 506.165558
-0.059084,-0.008789,-0.986846,-0.354015,0.933622,0.205573,0.140629,-0.029786,-1.032746,  --- 507.165710
-0.058107,-0.005371,-0.980987,-0.34962,0.927762,0.218268,0.146,-0.031739,-1.036164,  --- 508.165863
-0.058107,-0.005371,-0.980987,-0.34962,0.927762,0.218268,0.146,-0.031739,-1.036164,  --- 509.165985
-0.0459,-0.007324,-0.995636,-0.354015,0.940458,0.206549,0.138188,-0.029298,-1.028351,  --- 510.166138
-0.0459,-0.007324,-0.995636,-0.354015,0.940458,0.206549,0.138188,-0.029298,-1.028351,  --- 511.166260
-0.046876,-0.000488,-0.97708,-0.34669,0.93704,0.199225,0.139164,-0.022462,-1.022492,  --- 512.166443
-0.046876,-0.000488,-0.97708,-0.34669,0.93704,0.199225,0.139164,-0.022462,-1.022492,  --- 513.166626
-0.050783,-0.012696,-0.988799,-0.356456,0.93997,0.210456,0.140141,-0.02295,-1.027863,  --- 514.166809
-0.044435,-0.008789,-0.976592,-0.359386,0.941923,0.212409,0.138676,-0.033692,-1.027375,  --- 515.455078
-0.044435,-0.008789,-0.976592,-0.359386,0.941923,0.212409,0.138676,-0.033692,-1.027375,  --- 516.455505
-0.052736,-0.00586,-0.988311,-0.353038,0.938505,0.207526,0.141606,-0.016114,-1.023957,  --- 517.455750
-0.052736,-0.00586,-0.988311,-0.353038,0.938505,0.207526,0.141606,-0.016114,-1.023957,  --- 518.455933
-0.053224,-0.007324,-0.982451,-0.359386,0.927762,0.204108,0.147465,-0.02588,-1.028351,  --- 519.456238
-0.053224,-0.007324,-0.982451,-0.359386,0.927762,0.204108,0.147465,-0.02588,-1.028351,  --- 520.456360
-0.051759,-0.012696,-0.98587,-0.354503,0.944364,0.204108,0.136723,-0.02002,-1.035676,  --- 521.456543
-0.051759,-0.012696,-0.98587,-0.354503,0.944364,0.204108,0.136723,-0.02002,-1.035676,  --- 522.456726
-0.048341,0.003418,-0.994171,-0.359386,0.927274,0.202643,0.133793,-0.014161,-1.033234,  --- 523.456848
-0.048341,0.003418,-0.994171,-0.359386,0.927274,0.202643,0.133793,-0.014161,-1.033234,  --- 524.457031
-0.050783,-0.004395,-0.970732,-0.349132,0.938017,0.208991,0.135258,-0.023927,-1.023468,  --- 525.457214
-0.046876,-0.008301,-0.98001,-0.356944,0.927274,0.218757,0.139164,-0.020997,-1.04593,  --- 526.775513
-0.046876,-0.008301,-0.98001,-0.356944,0.927274,0.218757,0.139164,-0.020997,-1.04593,  --- 527.775696
-0.050294,-0.008301,-0.994171,-0.352061,0.935575,0.207037,0.147954,-0.028809,-1.01712,  --- 528.775818
-0.050294,-0.008301,-0.994171,-0.352061,0.935575,0.207037,0.147954,-0.028809,-1.01712,  --- 529.776001
-0.051271,-0.007813,-0.989288,-0.351085,0.950712,0.205084,0.139164,-0.022462,-1.033723,  --- 530.776123
-0.051271,-0.007813,-0.989288,-0.351085,0.950712,0.205084,0.139164,-0.022462,-1.033723,  --- 531.776306
-0.058596,-0.003906,-0.989776,-0.346202,0.938017,0.208502,0.139653,-0.026368,-1.039582,  --- 532.776489
-0.058596,-0.003906,-0.989776,-0.346202,0.938017,0.208502,0.139653,-0.026368,-1.039582,  --- 533.776855
-0.057619,-0.006836,-0.990264,-0.359386,0.921903,0.203619,0.136235,-0.02002,-1.031769,  --- 534.777039
-0.050294,-0.002441,-0.978057,-0.347667,0.943876,0.21485,0.136723,-0.02588,-1.031769,  --- 536.094360
-0.050294,-0.002441,-0.978057,-0.347667,0.943876,0.21485,0.136723,-0.02588,-1.031769,  --- 537.094604
-0.055666,-0.00586,-0.991241,-0.354503,0.917996,0.221198,0.137211,-0.026368,-1.029328,  --- 538.094727
-0.055666,-0.00586,-0.991241,-0.354503,0.917996,0.221198,0.137211,-0.026368,-1.029328,  --- 539.094910
-0.060549,-0.005371,-0.985381,-0.353526,0.949247,0.199225,0.144047,-0.02588,-1.030305,  --- 540.095032
-0.060549,-0.005371,-0.985381,-0.353526,0.949247,0.199225,0.144047,-0.02588,-1.030305,  --- 541.095215
-0.053224,-0.011231,-0.986358,-0.362316,0.921414,0.207037,0.140141,-0.019044,-1.036652,  --- 542.095337
-0.053224,-0.011231,-0.986358,-0.362316,0.921414,0.207037,0.140141,-0.019044,-1.036652,  --- 543.095520
-0.053713,-0.002441,-0.986846,-0.351573,0.953154,0.206061,0.143071,-0.028809,-1.018585,  --- 544.095703
-0.046876,-0.007324,-0.972686,-0.350108,0.933622,0.216803,0.134281,-0.015137,-1.019074,  --- 545.384644
-0.046876,-0.007324,-0.972686,-0.350108,0.933622,0.216803,0.134281,-0.015137,-1.019074,  --- 546.384766
-0.059084,-0.015137,-0.980987,-0.345225,0.93704,0.21192,0.134281,-0.035157,-1.027863,  --- 547.384949
-0.059084,-0.015137,-0.980987,-0.345225,0.93704,0.21192,0.134281,-0.035157,-1.027863,  --- 548.403625
-0.051759,-0.008789,-0.984893,-0.360851,0.932645,0.216315,0.147465,-0.036622,-1.045442,  --- 549.403931
-0.051759,-0.008789,-0.984893,-0.360851,0.932645,0.216315,0.147465,-0.036622,-1.045442,  --- 550.404236
-0.048341,-0.002441,-0.999542,-0.355479,0.947783,0.20069,0.140629,-0.028321,-1.032258,  --- 551.404541
-0.048341,-0.002441,-0.999542,-0.355479,0.947783,0.20069,0.140629,-0.028321,-1.032258,  --- 552.404785
-0.043458,0.003906,-0.989288,-0.358409,0.927762,0.218268,0.143071,-0.02295,-1.036164,  --- 553.404968
-0.043458,0.003906,-0.989288,-0.358409,0.927762,0.218268,0.143071,-0.02295,-1.036164,  --- 554.405090
-0.056154,-0.018555,-0.990753,-0.350108,0.934599,0.198248,0.127934,-0.021973,-1.030305,  --- 555.405212
-0.051271,-0.000488,-0.979522,-0.367199,0.933134,0.229499,0.142094,-0.018555,-1.032746,  --- 556.687378
-0.051271,-0.000488,-0.979522,-0.367199,0.933134,0.229499,0.142094,-0.018555,-1.032746,  --- 557.687500
-0.047365,-0.009766,-0.986846,-0.348643,0.942411,0.211432,0.132328,-0.015625,-1.04593,  --- 558.687683
-0.047365,-0.009766,-0.986846,-0.348643,0.942411,0.211432,0.132328,-0.015625,-1.04593,  --- 559.687805
-0.060549,-0.008789,-0.984405,-0.35255,0.923368,0.207037,0.141606,-0.035157,-1.052278,  --- 560.687988
-0.060549,-0.008789,-0.984405,-0.35255,0.923368,0.207037,0.141606,-0.035157,-1.052278,  --- 561.688110
-0.044923,-0.003418,-0.981963,-0.35255,0.946806,0.209479,0.146977,-0.033204,-1.022492,  --- 562.688293
-0.044923,-0.003418,-0.981963,-0.35255,0.946806,0.209479,0.146977,-0.033204,-1.022492,  --- 563.688477
-0.049318,-0.012207,-0.98294,-0.352061,0.924344,0.204596,0.147954,-0.020508,-1.014191,  --- 564.688721
-0.049318,-0.012207,-0.98294,-0.352061,0.924344,0.204596,0.147954,-0.020508,-1.014191,  --- 565.688904
-0.053713,-0.007813,-0.991729,-0.350108,0.945341,0.210944,0.144047,-0.033692,-1.034211,  --- 566.689148
-0.053713,-0.007813,-0.991729,-0.350108,0.945341,0.210944,0.144047,-0.033692,-1.034211,  --- 567.891113
-0.052248,0.001465,-0.978057,-0.365734,0.933622,0.207037,0.141606,-0.02588,-1.035676,  --- 568.891418
-0.04297,-0.009278,-0.980987,-0.354503,0.930692,0.208991,0.142582,-0.028809,-1.022004,  --- 569.891541
-0.04297,-0.009278,-0.980987,-0.354503,0.930692,0.208991,0.142582,-0.028809,-1.022004,  --- 570.891724
-0.050783,-0.010743,-0.991241,-0.357433,0.935575,0.205084,0.135746,-0.026368,-1.036164,  --- 571.891846
-0.050783,-0.010743,-0.991241,-0.357433,0.935575,0.205084,0.135746,-0.026368,-1.036164,  --- 572.892029
-0.058107,-0.008301,-0.983428,-0.346202,0.941435,0.207526,0.136235,-0.023438,-1.031281,  --- 573.892212
-0.058107,-0.008301,-0.983428,-0.346202,0.941435,0.207526,0.136235,-0.023438,-1.031281,  --- 574.892334
-0.060549,-0.009766,-0.98294,-0.354991,0.933134,0.212897,0.136235,-0.021973,-1.030305,  --- 575.892517
-0.060549,-0.009766,-0.98294,-0.354991,0.933134,0.212897,0.136235,-0.021973,-1.030305,  --- 576.892700
-0.055666,-0.005371,-0.982451,-0.351573,0.925809,0.210944,0.13477,-0.019044,-1.033723,  --- 577.892883
-0.055666,-0.005371,-0.982451,-0.351573,0.925809,0.210944,0.13477,-0.019044,-1.033723,  --- 578.893005
-0.046388,-0.007813,-0.982451,-0.355968,0.935575,0.212409,0.133793,-0.019044,-1.017609,  --- 579.893188
-0.050294,-0.009278,-0.979033,-0.353526,0.932157,0.204108,0.141606,-0.022462,-1.034211,  --- 581.141724
-0.050294,-0.009278,-0.979033,-0.353526,0.932157,0.204108,0.141606,-0.022462,-1.034211,  --- 582.141968
-0.052248,-0.009766,-0.986358,-0.349132,0.928251,0.208502,0.13184,-0.030763,-1.044465,  --- 583.169189
-0.052248,-0.009766,-0.986358,-0.349132,0.928251,0.208502,0.13184,-0.030763,-1.044465,  --- 584.169312
-0.053713,0.002441,-0.985381,-0.351085,0.941435,0.220221,0.136235,-0.025391,-1.038117,  --- 585.169617
-0.053713,0.002441,-0.985381,-0.351085,0.941435,0.220221,0.136235,-0.025391,-1.038117,  --- 586.169861
-0.051271,-0.018555,-0.975127,-0.355968,0.938505,0.227546,0.139653,-0.02588,-1.027375,  --- 587.169983
-0.051271,-0.018555,-0.975127,-0.355968,0.938505,0.227546,0.139653,-0.02588,-1.027375,  --- 588.170166
-0.054201,-0.013184,-0.986846,-0.352061,0.93118,0.215339,0.134281,-0.027345,-1.038606,  --- 589.170349
-0.054201,-0.013184,-0.986846,-0.352061,0.93118,0.215339,0.134281,-0.027345,-1.038606,  --- 590.170471
-0.046876,-0.015137,-0.985381,-0.365245,0.927274,0.227058,0.136235,-0.027833,-1.031281,  --- 591.170654
-0.046876,-0.015137,-0.985381,-0.365245,0.927274,0.227058,0.136235,-0.027833,-1.031281,  --- 592.402588
-0.044435,-0.006836,-0.990264,-0.346202,0.938017,0.212897,0.136723,-0.018555,-1.023468,  --- 593.402771
-0.057619,0.000488,-0.989288,-0.355479,0.926786,0.208991,0.136235,-0.028809,-1.027375,  --- 594.402893
-0.057619,0.000488,-0.989288,-0.355479,0.926786,0.208991,0.136235,-0.028809,-1.027375,  --- 595.403076
-0.058107,-0.008789,-0.981475,-0.355968,0.938505,0.212409,0.142582,-0.030763,-1.021515,  --- 596.403198
-0.058107,-0.008789,-0.981475,-0.355968,0.938505,0.212409,0.142582,-0.030763,-1.021515,  --- 597.403320
-0.046876,-0.008301,-0.980498,-0.357433,0.935575,0.204596,0.145512,-0.023927,-1.031281,  --- 598.403564
-0.046876,-0.008301,-0.980498,-0.357433,0.935575,0.204596,0.145512,-0.023927,-1.031281,  --- 599.403809
-0.050783,-0.011719,-0.985381,-0.356944,0.926786,0.210456,0.13184,-0.011231,-1.032746,  --- 600.404053
-0.050783,-0.011719,-0.985381,-0.356944,0.926786,0.210456,0.13184,-0.011231,-1.032746,  --- 601.404236
-0.051759,-0.017579,-0.981963,-0.354503,0.929227,0.216803,0.13477,-0.02295,-1.038117,  --- 602.404480
-0.051759,-0.017579,-0.981963,-0.354503,0.929227,0.216803,0.13477,-0.02295,-1.038117,  --- 603.687012
-0.051759,-0.008301,-0.981963,-0.353038,0.93411,0.20069,0.136723,-0.036134,-1.022492,  --- 604.687195
-0.050783,-0.004395,-0.990753,-0.361827,0.932157,0.211432,0.141606,-0.024415,-1.04593,  --- 605.687317
-0.050783,-0.004395,-0.990753,-0.361827,0.932157,0.211432,0.141606,-0.024415,-1.04593,  --- 606.687439
-0.045412,-0.005371,-0.991729,-0.355968,0.929716,0.207526,0.136723,-0.025391,-1.036164,  --- 607.687622
-0.045412,-0.005371,-0.991729,-0.355968,0.929716,0.207526,0.136723,-0.025391,-1.036164,  --- 608.687805
-0.050294,-0.008789,-0.980987,-0.360362,0.930692,0.21192,0.140141,-0.027833,-1.034699,  --- 609.687988
-0.050294,-0.008789,-0.980987,-0.360362,0.930692,0.21192,0.140141,-0.027833,-1.034699,  --- 610.688171
-0.051759,-0.015137,-0.988799,-0.349132,0.93411,0.204596,0.138188,-0.024415,-1.032258,  --- 611.688293
-0.051759,-0.015137,-0.988799,-0.349132,0.93411,0.204596,0.138188,-0.024415,-1.032258,  --- 612.688477
-0.06299,-0.019532,-0.979522,-0.34962,0.922391,0.208502,0.135258,-0.019532,-1.022492,  --- 613.688660
-0.050294,-0.014649,-0.996124,-0.354503,0.928251,0.200201,0.138676,-0.023927,-1.032746,  --- 614.989136
-0.050294,-0.014649,-0.996124,-0.354503,0.928251,0.200201,0.138676,-0.023927,-1.032746,  --- 615.989441
-0.052736,-0.026368,-0.978057,-0.361339,0.93704,0.195318,0.138676,-0.035646,-1.02298,  --- 616.989746
-0.052736,-0.026368,-0.978057,-0.361339,0.93704,0.195318,0.138676,-0.035646,-1.02298,  --- 617.990051
-0.051759,-0.019532,-0.98001,-0.34669,0.93411,0.211432,0.15186,-0.037599,-1.041047,  --- 618.990295
-0.051759,-0.019532,-0.98001,-0.34669,0.93411,0.211432,0.15186,-0.037599,-1.041047,  --- 619.990479
-0.050294,-0.010743,-0.984893,-0.341807,0.933622,0.210456,0.140141,-0.02002,-1.027375,  --- 620.990723
-0.050294,-0.010743,-0.984893,-0.341807,0.933622,0.210456,0.140141,-0.02002,-1.027375,  --- 621.990906
-0.046876,-0.003418,-0.991241,-0.343272,0.936552,0.21485,0.142582,-0.025391,-1.033234,  --- 622.991089
-0.046876,-0.003418,-0.991241,-0.343272,0.936552,0.21485,0.142582,-0.025391,-1.033234,  --- 624.281982
-0.046388,-0.007324,-0.990264,-0.353526,0.938017,0.205573,0.143071,-0.02002,-1.038606,  --- 625.282166
-0.052736,-0.016602,-0.989776,-0.355968,0.93118,0.209479,0.13477,-0.022462,-1.036164,  --- 626.282288
-0.052736,-0.016602,-0.989776,-0.355968,0.93118,0.209479,0.13477,-0.022462,-1.036164,  --- 627.282471
-0.054689,0.00293,-0.993194,-0.358898,0.932157,0.206061,0.145512,-0.02295,-1.026398,  --- 628.282654
-0.054689,0.00293,-0.993194,-0.358898,0.932157,0.206061,0.145512,-0.02295,-1.026398,  --- 629.282776
-0.059084,-0.012207,-0.980498,-0.35255,0.924833,0.205573,0.149907,-0.029786,-1.030305,  --- 630.282959
-0.059084,-0.012207,-0.980498,-0.35255,0.924833,0.205573,0.149907,-0.029786,-1.030305,  --- 631.283081
-0.055666,-0.012696,-0.993194,-0.354503,0.932645,0.20069,0.133305,-0.029298,-1.024445,  --- 632.283264
-0.055666,-0.012696,-0.993194,-0.354503,0.932645,0.20069,0.133305,-0.029298,-1.024445,  --- 633.283691
-0.056154,-0.007813,-0.979522,-0.349132,0.933622,0.209479,0.139164,-0.017579,-1.02005,  --- 634.283875
-0.056154,-0.007813,-0.979522,-0.349132,0.933622,0.209479,0.139164,-0.017579,-1.02005,  --- 635.558960
-0.053224,-0.000977,-0.978545,-0.351085,0.929227,0.216803,0.135746,-0.019044,-1.030305,  --- 636.559204
-0.054201,-0.009766,-0.984405,-0.354015,0.935087,0.208502,0.139653,-0.022462,-1.030793,  --- 637.559326
-0.054201,-0.009766,-0.984405,-0.354015,0.935087,0.208502,0.139653,-0.022462,-1.030793,  --- 638.559509
-0.052736,-0.010743,-0.979522,-0.362804,0.938017,0.22364,0.151372,-0.029786,-1.034699,  --- 639.559631
-0.052736,-0.010743,-0.979522,-0.362804,0.938017,0.22364,0.151372,-0.029786,-1.034699,  --- 640.559814
-0.050294,-0.004883,-0.995636,-0.35255,0.933134,0.200201,0.139164,-0.023438,-1.034699,  --- 641.559937
-0.050294,-0.004883,-0.995636,-0.35255,0.933134,0.200201,0.139164,-0.023438,-1.034699,  --- 642.560120
-0.047853,-0.013184,-0.990264,-0.354991,0.940458,0.203131,0.136723,-0.037599,-1.024933,  --- 643.560242
-0.047853,-0.013184,-0.990264,-0.354991,0.940458,0.203131,0.136723,-0.037599,-1.024933,  --- 644.560425
-0.055666,-0.010254,-0.993682,-0.360851,0.931669,0.193365,0.133305,-0.028809,-1.045442,  --- 645.560547
-0.055666,-0.010254,-0.993682,-0.360851,0.931669,0.193365,0.133305,-0.028809,-1.045442,  --- 646.792480
-0.058107,-0.014649,-0.986358,-0.355968,0.930204,0.211432,0.139164,-0.033692,-1.039094,  --- 647.792664
-0.049806,-0.002441,-0.979033,-0.351573,0.922391,0.206061,0.139164,-0.028321,-1.038117,  --- 648.815002
-0.049806,-0.002441,-0.979033,-0.351573,0.922391,0.206061,0.139164,-0.028321,-1.038117,  --- 649.831421
-0.061037,-0.007324,-0.994171,-0.358898,0.929227,0.212409,0.135258,-0.036622,-1.031769,  --- 650.831726
-0.061037,-0.007324,-0.994171,-0.358898,0.929227,0.212409,0.135258,-0.036622,-1.031769,  --- 651.832275
-0.058596,-0.00586,-0.986846,-0.353526,0.934599,0.218757,0.136723,-0.027833,-1.025422,  --- 652.832520
-0.058596,-0.00586,-0.986846,-0.353526,0.934599,0.218757,0.136723,-0.027833,-1.025422,  --- 653.832703
-0.06006,-0.012207,-0.980498,-0.353038,0.928739,0.209967,0.140629,-0.025391,-1.024933,  --- 654.832947
-0.06006,-0.012207,-0.980498,-0.353038,0.928739,0.209967,0.140629,-0.025391,-1.024933,  --- 655.833130
-0.06299,-0.003418,-0.98294,-0.344249,0.93704,0.196295,0.135258,-0.013184,-1.026886,  --- 656.833252
-0.050783,-0.008301,-0.979522,-0.347667,0.927762,0.207526,0.139653,-0.030274,-1.029816,  --- 658.163574
-0.050783,-0.008301,-0.979522,-0.347667,0.927762,0.207526,0.139653,-0.030274,-1.029816,  --- 659.163757
-0.059084,-0.009766,-0.983428,-0.347667,0.933134,0.203131,0.141606,-0.02295,-1.038606,  --- 660.163940
-0.059084,-0.009766,-0.983428,-0.347667,0.933134,0.203131,0.141606,-0.02295,-1.038606,  --- 661.164124
-0.0459,-0.008301,-0.992217,-0.34962,0.933134,0.204108,0.139164,-0.017579,-1.038606,  --- 662.164246
-0.0459,-0.008301,-0.992217,-0.34962,0.933134,0.204108,0.139164,-0.017579,-1.038606,  --- 663.164368
-0.061525,-0.009278,-0.987823,-0.353526,0.938017,0.219733,0.14893,-0.025391,-1.037629,  --- 664.164612
-0.061525,-0.009278,-0.987823,-0.353526,0.938017,0.219733,0.14893,-0.025391,-1.037629,  --- 665.164795
-0.046388,-0.00293,-0.994171,-0.357433,0.941923,0.207037,0.133793,-0.027345,-1.02005,  --- 666.164917
-0.056154,-0.012207,-0.985381,-0.354991,0.937528,0.198248,0.134281,-0.019532,-1.032746,  --- 667.491333
-0.056154,-0.012207,-0.985381,-0.354991,0.937528,0.198248,0.134281,-0.019532,-1.032746,  --- 668.491699
-0.0459,-0.011231,-0.974639,-0.353038,0.930204,0.202643,0.135746,-0.028809,-1.032258,  --- 669.492126
-0.0459,-0.011231,-0.974639,-0.353038,0.930204,0.202643,0.135746,-0.028809,-1.032258,  --- 670.492310
-0.055177,-0.003906,-0.986846,-0.355479,0.923368,0.211432,0.131352,-0.030274,-1.033723,  --- 671.492432
-0.055177,-0.003906,-0.986846,-0.355479,0.923368,0.211432,0.131352,-0.030274,-1.033723,  --- 672.492615
-0.059084,-0.007813,-0.988311,-0.358409,0.928739,0.219733,0.142582,-0.039064,-1.033723,  --- 673.492737
-0.059084,-0.007813,-0.988311,-0.358409,0.928739,0.219733,0.142582,-0.039064,-1.033723,  --- 674.492859
-0.056642,-0.011719,-0.994171,-0.367199,0.929227,0.21778,0.140629,-0.022462,-1.026886,  --- 675.492981
-0.047853,-0.003418,-0.998077,-0.351085,0.936552,0.204596,0.139653,-0.020508,-1.02005,  --- 676.841370
-0.047853,-0.003418,-0.998077,-0.351085,0.936552,0.204596,0.139653,-0.020508,-1.02005,  --- 677.841553
-0.051271,-0.010254,-0.989776,-0.356944,0.936552,0.212897,0.13477,-0.02295,-1.032258,  --- 678.841675
-0.051271,-0.010254,-0.989776,-0.356944,0.936552,0.212897,0.13477,-0.02295,-1.032258,  --- 679.841858
-0.050783,-0.003418,-0.980987,-0.354991,0.937528,0.216803,0.136235,-0.026368,-1.02005,  --- 680.841980
-0.050783,-0.003418,-0.980987,-0.354991,0.937528,0.216803,0.136235,-0.026368,-1.02005,  --- 681.842102
-0.053713,-0.012207,-0.98294,-0.351573,0.932157,0.215827,0.138676,-0.027345,-1.024445,  --- 682.842468
-0.053713,-0.012207,-0.98294,-0.351573,0.932157,0.215827,0.138676,-0.027345,-1.024445,  --- 683.842773
-0.050294,-0.011231,-0.994171,-0.361339,0.936063,0.212409,0.139164,-0.023438,-1.027375,  --- 684.842957
-0.050294,-0.011231,-0.994171,-0.361339,0.936063,0.212409,0.139164,-0.023438,-1.027375,  --- 685.843140
-0.062502,-0.006836,-0.983916,-0.357433,0.935087,0.217292,0.136723,-0.026856,-1.034211,  --- 686.843445
-0.048341,-0.004883,-0.979033,-0.358409,0.930692,0.222663,0.132328,-0.02588,-1.036164,  --- 688.159912
-0.048341,-0.004883,-0.979033,-0.358409,0.930692,0.222663,0.132328,-0.02588,-1.036164,  --- 689.160034
-0.054201,-0.000977,-0.978545,-0.356944,0.943876,0.195318,0.133793,-0.025391,-1.020539,  --- 690.160217
-0.054201,-0.000977,-0.978545,-0.356944,0.943876,0.195318,0.133793,-0.025391,-1.020539,  --- 691.160339
-0.052248,-0.003906,-0.986358,-0.348643,0.920926,0.22071,0.12891,-0.019532,-1.024445,  --- 692.160522
-0.052248,-0.003906,-0.986358,-0.348643,0.920926,0.22071,0.12891,-0.019532,-1.024445,  --- 693.160706
-0.049806,-0.012207,-0.975615,-0.34962,0.940946,0.187017,0.141118,-0.024903,-1.039582,  --- 694.160828
-0.049806,-0.012207,-0.975615,-0.34962,0.940946,0.187017,0.141118,-0.024903,-1.039582,  --- 695.161011
-0.044923,-0.004395,-0.980987,-0.349132,0.93118,0.212897,0.139164,-0.028809,-1.038117,  --- 696.161133
-0.061037,-0.004395,-0.9971,-0.361339,0.936552,0.210944,0.140141,-0.024903,-1.023957,  --- 697.486755
-0.061037,-0.004395,-0.9971,-0.361339,0.936552,0.210944,0.140141,-0.024903,-1.023957,  --- 698.486877
-0.054689,-0.015625,-0.983428,-0.35255,0.93704,0.21778,0.138188,-0.029298,-1.032746,  --- 699.487061
-0.054689,-0.015625,-0.983428,-0.35255,0.93704,0.21778,0.138188,-0.029298,-1.032746,  --- 700.488525
-0.051759,-0.013672,-0.990264,-0.351085,0.930204,0.198248,0.146489,-0.02002,-1.02884,  --- 701.488831
-0.051759,-0.013672,-0.990264,-0.351085,0.930204,0.198248,0.146489,-0.02002,-1.02884,  --- 702.489014
-0.047365,-0.004395,-0.98294,-0.356456,0.936063,0.216315,0.145024,-0.018067,-1.041535,  --- 703.489197
-0.047365,-0.004395,-0.98294,-0.356456,0.936063,0.216315,0.145024,-0.018067,-1.041535,  --- 704.489380
-0.052736,-0.001953,-1.005401,-0.348643,0.941435,0.209479,0.135746,-0.028809,-1.030305,  --- 705.489502
-0.052736,-0.001953,-1.005401,-0.348643,0.941435,0.209479,0.135746,-0.028809,-1.030305,  --- 706.489624
-0.059084,-0.009766,-0.978057,-0.353038,0.927762,0.204108,0.139164,-0.030274,-1.04593,  --- 707.489746
-0.059084,-0.009766,-0.978057,-0.353038,0.927762,0.204108,0.139164,-0.030274,-1.04593,  --- 708.734375
-0.054689,-0.014161,-0.975615,-0.364757,0.930204,0.201666,0.144536,-0.027345,-1.042512,  --- 709.734497
-0.058596,-0.014649,-0.988799,-0.358898,0.932645,0.213385,0.138188,-0.027345,-1.029328,  --- 710.757751
-0.058596,-0.014649,-0.988799,-0.358898,0.932645,0.213385,0.138188,-0.027345,-1.029328,  --- 711.757996
-0.046876,-0.013672,-0.994171,-0.353038,0.9429,0.21778,0.146977,-0.016602,-1.013702,  --- 712.758179
-0.046876,-0.013672,-0.994171,-0.353038,0.9429,0.21778,0.146977,-0.016602,-1.013702,  --- 713.758362
-0.056642,-0.00586,-0.98294,-0.354503,0.93997,0.212409,0.138188,-0.033204,-1.039582,  --- 714.758484
-0.056642,-0.00586,-0.98294,-0.354503,0.93997,0.212409,0.138188,-0.033204,-1.039582,  --- 715.758789
-0.054201,-0.013184,-0.973662,-0.357433,0.930692,0.209479,0.137211,-0.019044,-1.028351,  --- 716.759155
-0.054201,-0.013184,-0.973662,-0.357433,0.930692,0.209479,0.137211,-0.019044,-1.028351,  --- 718.058472
-0.061037,-0.006836,-0.980987,-0.353038,0.928739,0.211432,0.138676,-0.022462,-1.04593,  --- 719.058716
-0.047365,-0.008789,-0.988799,-0.360851,0.938505,0.214362,0.148442,-0.015137,-1.044953,  --- 720.058899
-0.047365,-0.008789,-0.988799,-0.360851,0.938505,0.214362,0.148442,-0.015137,-1.044953,  --- 721.059082
-0.049318,-0.009278,-0.986846,-0.361339,0.942411,0.197272,0.140629,-0.008301,-1.026398,  --- 722.059204
-0.049318,-0.009278,-0.986846,-0.361339,0.942411,0.197272,0.140629,-0.008301,-1.026398,  --- 723.059387
-0.052736,-0.005371,-0.982451,-0.356456,0.933622,0.20069,0.140141,-0.022462,-1.032746,  --- 724.059570
-0.052736,-0.005371,-0.982451,-0.356456,0.933622,0.20069,0.140141,-0.022462,-1.032746,  --- 725.059753
-0.053713,-0.004395,-0.987823,-0.35255,0.922879,0.193853,0.142094,-0.029786,-1.018097,  --- 726.059875
-0.053713,-0.004395,-0.987823,-0.35255,0.922879,0.193853,0.142094,-0.029786,-1.018097,  --- 727.059998
-0.055177,-0.008301,-1.000518,-0.345225,0.933622,0.207526,0.132328,-0.021485,-1.041535,  --- 728.060242
-0.057619,-0.008789,-0.978057,-0.351573,0.928251,0.203131,0.135258,-0.038087,-1.030305,  --- 729.336243
-0.057619,-0.008789,-0.978057,-0.351573,0.928251,0.203131,0.135258,-0.038087,-1.030305,  --- 730.336426
-0.055177,-0.014649,-0.984405,-0.348643,0.933622,0.215339,0.143071,-0.030763,-1.026886,  --- 731.336548
-0.055177,-0.014649,-0.984405,-0.348643,0.933622,0.215339,0.143071,-0.030763,-1.026886,  --- 732.336670
-0.056642,-0.008789,-0.988311,-0.351085,0.932157,0.208502,0.144047,-0.023927,-1.029328,  --- 733.336975
-0.056642,-0.008789,-0.988311,-0.351085,0.932157,0.208502,0.144047,-0.023927,-1.029328,  --- 734.337158
-0.048341,-0.003418,-0.981963,-0.355479,0.935575,0.206549,0.142094,-0.019044,-1.030793,  --- 735.337402
-0.048341,-0.003418,-0.981963,-0.355479,0.935575,0.206549,0.142094,-0.019044,-1.030793,  --- 736.337891
-0.063967,-0.00293,-0.976592,-0.357433,0.929716,0.215339,0.140629,-0.020997,-1.025422,  --- 737.338074
-0.063967,-0.00293,-0.976592,-0.357433,0.929716,0.215339,0.140629,-0.020997,-1.025422,  --- 738.338196
-0.050294,0.000488,-0.970732,-0.34669,0.9429,0.208502,0.140629,-0.025391,-1.023468,  --- 739.338379
-0.049318,-0.00586,-0.998565,-0.353526,0.91995,0.226081,0.134281,-0.028809,-1.043,  --- 740.611755
-0.049318,-0.00586,-0.998565,-0.353526,0.91995,0.226081,0.134281,-0.028809,-1.043,  --- 741.611938
-0.051759,-0.013184,-0.979522,-0.349132,0.949736,0.204108,0.147465,-0.020997,-1.034699,  --- 742.612061
-0.051759,-0.013184,-0.979522,-0.349132,0.949736,0.204108,0.147465,-0.020997,-1.034699,  --- 743.612244
-0.050783,-0.013184,-0.986358,-0.355968,0.925321,0.205573,0.135258,-0.026368,-1.042024,  --- 744.612366
-0.050783,-0.013184,-0.986358,-0.355968,0.925321,0.205573,0.135258,-0.026368,-1.042024,  --- 745.612549
-0.044923,-0.013672,-0.983916,-0.351085,0.936063,0.19776,0.126957,-0.022462,-1.031769,  --- 746.612732
-0.044923,-0.013672,-0.983916,-0.351085,0.936063,0.19776,0.126957,-0.022462,-1.031769,  --- 747.619446
-0.053713,-0.01709,-0.987334,-0.34962,0.929227,0.221686,0.126469,-0.021485,-1.026398,  --- 748.619568
-0.053713,-0.01709,-0.987334,-0.34962,0.929227,0.221686,0.126469,-0.021485,-1.026398,  --- 749.620056
-0.047853,-0.007324,-0.982451,-0.355479,0.9429,0.205084,0.147954,-0.024415,-1.024445,  --- 750.620178
-0.047853,-0.007324,-0.982451,-0.355479,0.9429,0.205084,0.147954,-0.024415,-1.024445,  --- 751.836365
-0.056642,0.003418,-0.98294,-0.356944,0.931669,0.214362,0.143559,-0.02002,-1.031769,  --- 752.836548
-0.049318,-0.011719,-0.981963,-0.341807,0.936063,0.19483,0.143559,-0.030274,-1.045442,  --- 753.836731
-0.049318,-0.011719,-0.981963,-0.341807,0.936063,0.19483,0.143559,-0.030274,-1.045442,  --- 754.836914
-0.053224,-0.010254,-0.98294,-0.361339,0.932157,0.231452,0.144047,-0.029786,-1.043489,  --- 755.837097
-0.053224,-0.010254,-0.98294,-0.361339,0.932157,0.231452,0.144047,-0.029786,-1.043489,  --- 756.837280
-0.054201,-0.001465,-0.988311,-0.356944,0.937528,0.196295,0.139164,-0.017579,-1.030305,  --- 757.837402
-0.054201,-0.001465,-0.988311,-0.356944,0.937528,0.196295,0.139164,-0.017579,-1.030305,  --- 758.837585
-0.054201,-0.009766,-0.987334,-0.358898,0.935575,0.209967,0.146977,-0.02002,-1.035187,  --- 759.837708
-0.054201,-0.009766,-0.987334,-0.358898,0.935575,0.209967,0.146977,-0.02002,-1.035187,  --- 760.837891
-0.049806,-0.010254,-0.973662,-0.358409,0.934599,0.209479,0.136235,-0.030763,-1.031281,  --- 761.838074
-0.049806,-0.010254,-0.973662,-0.358409,0.934599,0.209479,0.136235,-0.030763,-1.031281,  --- 763.098450
-0.044435,-0.00293,-0.994171,-0.360362,0.937528,0.210944,0.143071,-0.02295,-1.043977,  --- 764.098694
-0.056154,-0.012207,-0.991241,-0.347178,0.940458,0.209479,0.146977,-0.036622,-1.023957,  --- 765.098877
-0.056154,-0.012207,-0.991241,-0.347178,0.940458,0.209479,0.146977,-0.036622,-1.023957,  --- 766.099060
-0.056642,-0.007813,-0.994171,-0.360851,0.931669,0.200201,0.12891,-0.018555,-1.033723,  --- 767.099426
-0.056642,-0.007813,-0.994171,-0.360851,0.931669,0.200201,0.12891,-0.018555,-1.033723,  --- 768.099670
-0.050783,-0.010743,-1.00296,-0.358409,0.931669,0.205573,0.150883,-0.027345,-1.035187,  --- 769.099792
-0.050783,-0.010743,-1.00296,-0.358409,0.931669,0.205573,0.150883,-0.027345,-1.035187,  --- 770.099976
-0.051759,-0.008789,-0.977569,-0.346202,0.932157,0.207037,0.134281,-0.022462,-1.030793,  --- 771.100159
-0.051759,-0.008789,-0.977569,-0.346202,0.932157,0.207037,0.134281,-0.022462,-1.030793,  --- 772.100281
-0.051271,-0.011719,-0.987334,-0.356456,0.932645,0.19483,0.138188,-0.021973,-1.034699,  --- 773.100464
-0.051271,-0.011719,-0.987334,-0.356456,0.932645,0.19483,0.138188,-0.021973,-1.034699,  --- 774.385681
-0.051271,-0.009766,-1.004913,-0.347667,0.939481,0.207037,0.141118,-0.022462,-1.020539,  --- 775.385803
-0.052736,-0.008301,-0.995636,-0.35255,0.937528,0.21192,0.138676,-0.026368,-1.031769,  --- 776.385925
-0.052736,-0.008301,-0.995636,-0.35255,0.937528,0.21192,0.138676,-0.026368,-1.031769,  --- 777.386047
-0.055666,-0.010254,-0.990264,-0.35255,0.930692,0.203619,0.139164,-0.019044,-1.023468,  --- 778.386230
-0.055666,-0.010254,-0.990264,-0.35255,0.930692,0.203619,0.139164,-0.019044,-1.023468,  --- 779.386414
-0.055177,-0.013672,-0.976592,-0.353038,0.928739,0.191412,0.138676,-0.020997,-1.014191,  --- 780.402954
-0.055177,-0.013672,-0.976592,-0.353038,0.928739,0.191412,0.138676,-0.020997,-1.014191,  --- 781.403259
-0.059572,-0.009278,-0.988799,-0.347667,0.928251,0.194342,0.132817,-0.018067,-1.025422,  --- 782.403442
-0.059572,-0.009278,-0.988799,-0.347667,0.928251,0.194342,0.132817,-0.018067,-1.025422,  --- 783.403748
-0.062502,-0.011719,-0.983428,-0.344737,0.929716,0.213385,0.135746,-0.030274,-1.044465,  --- 784.403931
-0.062502,-0.011719,-0.983428,-0.344737,0.929716,0.213385,0.135746,-0.030274,-1.044465,  --- 785.609680
-0.056642,-0.00293,-0.996124,-0.350108,0.932645,0.204596,0.138188,-0.033692,-1.031769,  --- 786.609863
-0.054689,-0.007813,-0.974639,-0.351573,0.925809,0.204596,0.135258,-0.019044,-1.02884,  --- 787.610046
-0.054689,-0.007813,-0.974639,-0.351573,0.925809,0.204596,0.135258,-0.019044,-1.02884,  --- 788.610229
-0.043947,-0.004883,-0.980498,-0.356944,0.940458,0.21192,0.141118,-0.020997,-1.032258,  --- 789.610413
-0.043947,-0.004883,-0.980498,-0.356944,0.940458,0.21192,0.141118,-0.020997,-1.032258,  --- 790.610535
-0.049806,-0.009278,-1.004425,-0.356944,0.935087,0.210944,0.140141,-0.024415,-1.041535,  --- 791.610657
-0.049806,-0.009278,-1.004425,-0.356944,0.935087,0.210944,0.140141,-0.024415,-1.041535,  --- 792.610840
-0.054689,-0.009278,-0.980987,-0.349132,0.929227,0.205084,0.142094,-0.019532,-1.032746,  --- 793.610962
-0.054689,-0.009278,-0.980987,-0.349132,0.929227,0.205084,0.142094,-0.019532,-1.032746,  --- 794.611145
-0.052248,-0.02002,-0.992217,-0.358409,0.932645,0.21778,0.136235,-0.028321,-1.033723,  --- 795.611389
-0.0459,-0.013184,-0.986358,-0.357921,0.950224,0.21778,0.140141,-0.026856,-1.035676,  --- 796.915161
-0.0459,-0.013184,-0.986358,-0.357921,0.950224,0.21778,0.140141,-0.026856,-1.035676,  --- 797.915344
-0.057619,-0.012207,-0.987334,-0.357433,0.924833,0.218268,0.146489,-0.028809,-1.035187,  --- 798.915527
-0.057619,-0.012207,-0.987334,-0.357433,0.924833,0.218268,0.146489,-0.028809,-1.035187,  --- 799.916016
-0.0459,-0.005371,-0.975127,-0.359386,0.932645,0.21778,0.143559,-0.027345,-1.012238,  --- 800.916321
-0.0459,-0.005371,-0.975127,-0.359386,0.932645,0.21778,0.143559,-0.027345,-1.012238,  --- 801.916565
-0.038087,-0.013672,-0.983916,-0.357921,0.928739,0.21778,0.132817,-0.019532,-1.04007,  --- 802.916748
-0.038087,-0.013672,-0.983916,-0.357921,0.928739,0.21778,0.132817,-0.019532,-1.04007,  --- 803.917053
-0.043458,-0.008301,-0.987334,-0.354991,0.936552,0.210456,0.138676,-0.020508,-1.027375,  --- 804.917236
-0.043458,-0.008301,-0.987334,-0.354991,0.936552,0.210456,0.138676,-0.020508,-1.027375,  --- 805.917358
-0.053224,-0.002441,-0.975615,-0.358898,0.931669,0.208991,0.138676,-0.025391,-1.02298,  --- 806.917542
-0.053224,-0.002441,-0.975615,-0.358898,0.931669,0.208991,0.138676,-0.025391,-1.02298,  --- 808.123413
-0.051759,-0.010743,-0.98001,-0.352061,0.939481,0.222663,0.140629,-0.024903,-1.038117,  --- 809.123596
-0.054201,-0.004883,-0.987334,-0.358409,0.93118,0.214362,0.145024,-0.031739,-1.032746,  --- 810.123779
-0.054201,-0.004883,-0.987334,-0.358409,0.93118,0.214362,0.145024,-0.031739,-1.032746,  --- 811.123962
-0.056154,-0.011231,-0.98294,-0.355479,0.931669,0.211432,0.141606,-0.025391,-1.032258,  --- 812.124146
-0.056154,-0.011231,-0.98294,-0.355479,0.931669,0.211432,0.141606,-0.025391,-1.032258,  --- 813.124268
-0.055666,0,-0.984893,-0.355479,0.93411,0.218268,0.130375,-0.021485,-1.026886,  --- 814.124390
-0.055666,0,-0.984893,-0.355479,0.93411,0.218268,0.130375,-0.021485,-1.026886,  --- 815.124695
-0.055177,-0.017579,-0.975127,-0.353526,0.937528,0.21778,0.142582,-0.032716,-1.044465,  --- 816.125061
-0.055177,-0.017579,-0.975127,-0.353526,0.937528,0.21778,0.142582,-0.032716,-1.044465,  --- 817.143982
-0.056154,-0.015625,-0.977569,-0.35255,0.929716,0.206061,0.126469,-0.02588,-1.042512,  --- 818.144409
-0.053713,-0.010743,-1.010773,-0.360362,0.937528,0.201666,0.147465,-0.041017,-1.030793,  --- 819.479309
-0.053713,-0.010743,-1.010773,-0.360362,0.937528,0.201666,0.147465,-0.041017,-1.030793,  --- 820.479614
-0.053713,-0.010743,-0.990753,-0.349132,0.936063,0.208991,0.143559,-0.031739,-1.026886,  --- 821.479736
-0.053713,-0.010743,-0.990753,-0.349132,0.936063,0.208991,0.143559,-0.031739,-1.026886,  --- 822.479919
-0.061037,-0.009278,-0.980987,-0.354991,0.931669,0.210456,0.144536,-0.016114,-1.022492,  --- 823.480103
-0.061037,-0.009278,-0.980987,-0.354991,0.931669,0.210456,0.144536,-0.016114,-1.022492,  --- 824.480286
-0.052248,-0.010254,-1.000518,-0.351573,0.946318,0.21192,0.142094,-0.027345,-1.028351,  --- 825.480408
-0.052248,-0.010254,-1.000518,-0.351573,0.946318,0.21192,0.142094,-0.027345,-1.028351,  --- 826.480591
-0.061525,-0.007324,-0.98001,-0.354991,0.933134,0.208991,0.135258,-0.022462,-1.027375,  --- 827.480713
-0.061525,-0.007324,-0.98001,-0.354991,0.933134,0.208991,0.135258,-0.022462,-1.027375,  --- 828.732605
-0.048341,-0.008789,-0.983916,-0.358898,0.938017,0.225593,0.138676,-0.028809,-1.030305,  --- 829.732788
-0.062502,-0.013672,-0.985381,-0.35255,0.936063,0.209479,0.149419,-0.01709,-1.034211,  --- 830.736450
-0.062502,-0.013672,-0.985381,-0.35255,0.936063,0.209479,0.149419,-0.01709,-1.034211,  --- 831.736694
-0.059084,-0.007813,-0.980987,-0.358898,0.927762,0.210456,0.144047,-0.028809,-1.043489,  --- 832.736877
-0.059084,-0.007813,-0.980987,-0.358898,0.927762,0.210456,0.144047,-0.028809,-1.043489,  --- 833.737122
-0.051759,0.000977,-0.987823,-0.354015,0.938505,0.210944,0.135746,-0.015625,-1.031281,  --- 834.763489
-0.051759,0.000977,-0.987823,-0.354015,0.938505,0.210944,0.135746,-0.015625,-1.031281,  --- 835.763794
-0.049806,-0.008301,-0.984893,-0.356944,0.940458,0.216315,0.132328,-0.020997,-1.02005,  --- 836.763977
-0.049806,-0.008301,-0.984893,-0.356944,0.940458,0.216315,0.132328,-0.020997,-1.02005,  --- 837.764099
-0.038087,-0.004883,-0.983916,-0.348155,0.933134,0.21192,0.135746,-0.013672,-1.029328,  --- 838.764282
-0.038087,-0.004883,-0.983916,-0.348155,0.933134,0.21192,0.135746,-0.013672,-1.029328,  --- 839.967285
-0.056642,-0.003906,-0.984893,-0.359386,0.933622,0.209967,0.144047,-0.029786,-1.021027,  --- 840.967468
-0.056642,-0.003906,-0.984893,-0.359386,0.933622,0.209967,0.144047,-0.029786,-1.021027,  --- 841.967651
-0.054689,-0.010743,-0.996612,-0.359386,0.938505,0.22364,0.13184,-0.023927,-1.022004,  --- 842.967773
-0.051759,-0.001953,-0.996612,-0.354015,0.940458,0.226081,0.142582,-0.028809,-1.033723,  --- 843.968018
-0.051759,-0.001953,-0.996612,-0.354015,0.940458,0.226081,0.142582,-0.028809,-1.033723,  --- 844.968201
-0.060549,-0.008789,-0.986358,-0.35255,0.932157,0.210944,0.141606,-0.023438,-1.044465,  --- 845.968323
-0.060549,-0.008789,-0.986358,-0.35255,0.932157,0.210944,0.141606,-0.023438,-1.044465,  --- 846.968506
-0.062502,-0.006836,-0.975127,-0.347667,0.933134,0.192877,0.149419,-0.025391,-1.036652,  --- 847.968750
-0.062502,-0.006836,-0.975127,-0.347667,0.933134,0.192877,0.149419,-0.025391,-1.036652,  --- 848.968872
-0.049318,-0.006836,-0.986358,-0.352061,0.93118,0.208502,0.135258,-0.026368,-1.029328,  --- 849.969238
-0.049318,-0.006836,-0.986358,-0.352061,0.93118,0.208502,0.135258,-0.026368,-1.029328,  --- 850.969360
-0.043947,0.001953,-0.994659,-0.354991,0.930692,0.22071,0.137699,-0.030763,-1.042024,  --- 851.969666
-0.048341,0.000488,-0.978545,-0.351085,0.928251,0.207037,0.138676,-0.033692,-1.032258,  --- 853.301331
-0.048341,0.000488,-0.978545,-0.351085,0.928251,0.207037,0.138676,-0.033692,-1.032258,  --- 854.301453
-0.061037,-0.001953,-0.983916,-0.351573,0.927762,0.215339,0.142582,-0.027833,-1.046907,  --- 855.301575
-0.061037,-0.001953,-0.983916,-0.351573,0.927762,0.215339,0.142582,-0.027833,-1.046907,  --- 856.301758
-0.051759,-0.00293,-0.980987,-0.357433,0.932157,0.222175,0.13477,-0.019532,-1.035676,  --- 857.301880
-0.051759,-0.00293,-0.980987,-0.357433,0.932157,0.222175,0.13477,-0.019532,-1.035676,  --- 858.302063
-0.053224,-0.004883,-0.989288,-0.347667,0.935087,0.20069,0.132328,-0.018067,-1.029816,  --- 859.302185
-0.053224,-0.004883,-0.989288,-0.347667,0.935087,0.20069,0.132328,-0.018067,-1.029816,  --- 860.302368
-0.052248,-0.011719,-0.980987,-0.358409,0.933622,0.210944,0.143071,-0.032228,-1.047395,  --- 861.302490
-0.050294,-0.011719,-0.989776,-0.354991,0.934599,0.205084,0.142582,-0.025391,-1.031769,  --- 862.616150
-0.050294,-0.011719,-0.989776,-0.354991,0.934599,0.205084,0.142582,-0.025391,-1.031769,  --- 863.616272
-0.041505,-0.016602,-0.98294,-0.345714,0.933134,0.208991,0.135258,-0.029786,-1.033723,  --- 864.616455
-0.041505,-0.016602,-0.98294,-0.345714,0.933134,0.208991,0.135258,-0.029786,-1.033723,  --- 865.616638
-0.053713,-0.012207,-0.983916,-0.349132,0.917996,0.220221,0.149907,-0.021973,-1.034699,  --- 866.616943
-0.053713,-0.012207,-0.983916,-0.349132,0.917996,0.220221,0.149907,-0.021973,-1.034699,  --- 867.617371
-0.059572,-0.011231,-0.97415,-0.351573,0.932645,0.194342,0.139653,-0.019532,-1.040559,  --- 868.617554
-0.059572,-0.011231,-0.97415,-0.351573,0.932645,0.194342,0.139653,-0.019532,-1.040559,  --- 869.617676
-0.055177,-0.009278,-0.977569,-0.364757,0.933622,0.210456,0.136235,-0.02588,-1.032746,  --- 870.617859
-0.053224,-0.006836,-0.985381,-0.357921,0.940946,0.218268,0.137211,-0.029298,-1.027375,  --- 871.939026
-0.053224,-0.006836,-0.985381,-0.357921,0.940946,0.218268,0.137211,-0.029298,-1.027375,  --- 872.939209
-0.052736,-0.00586,-0.992217,-0.355968,0.921903,0.210944,0.144047,-0.02588,-1.041047,  --- 873.939392
-0.052736,-0.00586,-0.992217,-0.355968,0.921903,0.210944,0.144047,-0.02588,-1.041047,  --- 874.939575
-0.051759,-0.009766,-0.988311,-0.343272,0.935087,0.21485,0.144536,-0.039552,-1.038606,  --- 875.939758
-0.051759,-0.009766,-0.988311,-0.343272,0.935087,0.21485,0.144536,-0.039552,-1.038606,  --- 876.939941
-0.054689,-0.004883,-0.977569,-0.359386,0.940946,0.203131,0.139653,-0.02295,-1.026886,  --- 877.940125
-0.054689,-0.004883,-0.977569,-0.359386,0.940946,0.203131,0.139653,-0.02295,-1.026886,  --- 878.940308
-0.049318,-0.00586,-0.977569,-0.361827,0.941435,0.221686,0.137211,-0.027345,-1.022492,  --- 879.940491
-0.049318,-0.00586,-0.977569,-0.361827,0.941435,0.221686,0.137211,-0.027345,-1.022492,  --- 880.940613
-0.048341,-0.005371,-0.988311,-0.35255,0.938017,0.203131,0.135746,-0.021485,-1.01712,  --- 881.940918
-0.048341,-0.005371,-0.988311,-0.35255,0.938017,0.203131,0.135746,-0.021485,-1.01712,  --- 883.177551
-0.053713,0.004883,-0.98587,-0.34962,0.939481,0.204108,0.13477,-0.019532,-1.027863,  --- 884.177795
-0.054689,-0.001953,-0.98294,-0.356456,0.935575,0.208502,0.141118,-0.023927,-1.029816,  --- 885.178040
-0.054689,-0.001953,-0.98294,-0.356456,0.935575,0.208502,0.141118,-0.023927,-1.029816,  --- 886.178223
-0.058596,-0.014161,-0.993682,-0.348155,0.936552,0.218757,0.138188,-0.017579,-1.031769,  --- 887.178406
-0.058596,-0.014161,-0.993682,-0.348155,0.936552,0.218757,0.138188,-0.017579,-1.031769,  --- 888.178589
-0.059572,-0.022462,-0.989776,-0.358898,0.93411,0.206549,0.137699,-0.025391,-1.014679,  --- 889.178711
-0.059572,-0.022462,-0.989776,-0.358898,0.93411,0.206549,0.137699,-0.025391,-1.014679,  --- 890.178894
-0.053224,-0.005371,-0.996124,-0.352061,0.935087,0.207037,0.127445,-0.02588,-1.029816,  --- 891.179077
-0.053224,-0.005371,-0.996124,-0.352061,0.935087,0.207037,0.127445,-0.02588,-1.029816,  --- 892.179260
-0.050783,-0.010254,-0.992217,-0.34669,0.93997,0.212897,0.135746,-0.02002,-1.034211,  --- 893.179382
-0.050783,-0.010254,-0.992217,-0.34669,0.93997,0.212897,0.135746,-0.02002,-1.034211,  --- 894.436096
-0.059084,-0.003418,-0.984893,-0.363292,0.943388,0.211432,0.130375,-0.017579,-1.034211,  --- 895.436279
-0.065432,-0.00586,-0.994171,-0.359386,0.931669,0.21192,0.139164,-0.040529,-1.031769,  --- 896.436462
-0.065432,-0.00586,-0.994171,-0.359386,0.931669,0.21192,0.139164,-0.040529,-1.031769,  --- 897.436646
-0.056154,-0.007324,-0.979033,-0.359386,0.936063,0.207526,0.134281,-0.026368,-1.021027,  --- 898.436768
-0.056154,-0.007324,-0.979033,-0.359386,0.936063,0.207526,0.134281,-0.026368,-1.021027,  --- 899.437256
-0.058596,-0.015137,-0.97415,-0.348155,0.906277,0.217292,0.143071,-0.023927,-1.037629,  --- 900.437500
-0.058596,-0.015137,-0.97415,-0.348155,0.906277,0.217292,0.143071,-0.023927,-1.037629,  --- 901.437622
-0.044435,-0.010743,-0.980987,-0.345225,0.933622,0.210944,0.141606,-0.019532,-1.026886,  --- 902.437988
-0.044435,-0.010743,-0.980987,-0.345225,0.933622,0.210944,0.141606,-0.019532,-1.026886,  --- 903.438171
-0.057619,-0.016602,-0.968779,-0.345225,0.929716,0.209479,0.137211,-0.021485,-1.02298,  --- 904.438354
-0.057619,-0.016602,-0.968779,-0.345225,0.929716,0.209479,0.137211,-0.021485,-1.02298,  --- 905.682373
-0.056154,-0.001953,-0.981475,-0.359386,0.93118,0.202643,0.137211,-0.017579,-1.041535,  --- 906.682556
-0.047853,-0.001465,-0.984405,-0.352061,0.930204,0.206549,0.146977,-0.036622,-1.043,  --- 907.682739
-0.047853,-0.001465,-0.984405,-0.352061,0.930204,0.206549,0.146977,-0.036622,-1.043,  --- 908.682922
-0.058107,-0.012696,-0.984405,-0.358898,0.932157,0.222175,0.137699,-0.034181,-1.038117,  --- 909.683105
-0.058107,-0.012696,-0.984405,-0.358898,0.932157,0.222175,0.137699,-0.034181,-1.038117,  --- 910.683228
-0.052736,-0.014649,-0.994171,-0.355479,0.927762,0.217292,0.146,-0.024415,-1.022492,  --- 911.690247
-0.052736,-0.014649,-0.994171,-0.355479,0.927762,0.217292,0.146,-0.024415,-1.022492,  --- 912.690491
-0.052248,-0.001465,-0.987334,-0.349132,0.934599,0.22071,0.142094,-0.016602,-1.024933,  --- 913.692871
-0.052248,-0.001465,-0.987334,-0.349132,0.934599,0.22071,0.142094,-0.016602,-1.024933,  --- 914.693115
-0.049318,0,-0.979033,-0.357433,0.936063,0.205084,0.133793,-0.029786,-1.036652,  --- 915.693481
-0.053224,-0.004883,-0.980498,-0.344737,0.934599,0.203131,0.142094,-0.023438,-1.050325,  --- 916.997620
-0.053224,-0.004883,-0.980498,-0.344737,0.934599,0.203131,0.142094,-0.023438,-1.050325,  --- 917.997803
-0.049318,-0.014649,-0.988311,-0.35255,0.935087,0.210456,0.149419,-0.024903,-1.037629,  --- 918.997986
-0.049318,-0.014649,-0.988311,-0.35255,0.935087,0.210456,0.149419,-0.024903,-1.037629,  --- 919.998169
-0.050783,-0.015625,-0.98587,-0.353038,0.93411,0.215339,0.13477,-0.029786,-1.023957,  --- 920.998291
-0.050783,-0.015625,-0.98587,-0.353038,0.93411,0.215339,0.13477,-0.029786,-1.023957,  --- 921.998474
-0.052248,-0.011231,-0.976592,-0.348155,0.934599,0.21192,0.140629,-0.026856,-1.02005,  --- 922.998657
-0.052248,-0.011231,-0.976592,-0.348155,0.934599,0.21192,0.140629,-0.026856,-1.02005,  --- 923.998901
-0.054201,-0.020997,-0.980987,-0.353038,0.930692,0.222663,0.137699,-0.021485,-1.030793,  --- 924.999084
-0.049806,-0.005371,-0.989288,-0.362316,0.936063,0.202643,0.139653,-0.031251,-1.033234,  --- 926.337830
-0.049806,-0.005371,-0.989288,-0.362316,0.936063,0.202643,0.139653,-0.031251,-1.033234,  --- 927.338013
-0.044923,-0.007813,-0.981963,-0.362804,0.930204,0.22071,0.136723,-0.027345,-1.034699,  --- 928.338196
-0.044923,-0.007813,-0.981963,-0.362804,0.930204,0.22071,0.136723,-0.027345,-1.034699,  --- 929.338318
-0.049806,-0.009766,-0.994659,-0.350108,0.930204,0.203131,0.139653,-0.033204,-1.043977,  --- 930.338501
-0.049806,-0.009766,-0.994659,-0.350108,0.930204,0.203131,0.139653,-0.033204,-1.043977,  --- 931.338684
-0.055177,-0.009278,-0.991729,-0.352061,0.938505,0.208502,0.146977,-0.024903,-1.037629,  --- 932.338806
-0.055177,-0.009278,-0.991729,-0.352061,0.938505,0.208502,0.146977,-0.024903,-1.037629,  --- 933.339172
-0.057619,-0.010254,-0.979522,-0.356456,0.91116,0.206061,0.137211,-0.023438,-1.047395,  --- 934.339355
-0.057619,-0.010254,-0.979522,-0.356456,0.91116,0.206061,0.137211,-0.023438,-1.047395,  --- 935.339661
-0.047365,-0.016602,-0.993194,-0.344737,0.927274,0.230964,0.141118,-0.021973,-1.04007,  --- 936.339905
-0.040529,-0.014161,-0.979033,-0.354015,0.93118,0.208502,0.132328,-0.016602,-1.023957,  --- 937.601074
-0.040529,-0.014161,-0.979033,-0.354015,0.93118,0.208502,0.132328,-0.016602,-1.023957,  --- 938.601257
-0.044435,-0.011719,-0.984405,-0.361339,0.943388,0.209967,0.137699,-0.022462,-1.019562,  --- 939.601440
-0.044435,-0.011719,-0.984405,-0.361339,0.943388,0.209967,0.137699,-0.022462,-1.019562,  --- 940.601562
-0.059084,-0.012207,-0.9971,-0.361339,0.936063,0.21485,0.129398,-0.021973,-1.046418,  --- 941.601746
-0.059084,-0.012207,-0.9971,-0.361339,0.936063,0.21485,0.129398,-0.021973,-1.046418,  --- 942.601868
-0.058596,-0.001465,-0.989776,-0.362316,0.934599,0.209479,0.143071,-0.016602,-1.025422,  --- 943.602051
-0.058596,-0.001465,-0.989776,-0.362316,0.934599,0.209479,0.143071,-0.016602,-1.025422,  --- 944.602234
-0.043947,-0.006836,-0.994659,-0.354503,0.93118,0.203131,0.128422,-0.017579,-1.017609,  --- 945.602356
-0.043947,-0.006836,-0.994659,-0.354503,0.93118,0.203131,0.128422,-0.017579,-1.017609,  --- 946.602539
-0.052736,-0.019532,-0.989288,-0.346202,0.928739,0.207526,0.129398,-0.017579,-1.02005,  --- 947.602722
-0.04297,-0.002441,-0.983916,-0.351085,0.938505,0.195807,0.137699,-0.020997,-1.032258,  --- 948.893616
-0.04297,-0.002441,-0.983916,-0.351085,0.938505,0.195807,0.137699,-0.020997,-1.032258,  --- 949.893860
-0.054201,-0.003906,-0.991241,-0.341319,0.937528,0.204596,0.139164,-0.028809,-1.056184,  --- 951.492004
-0.048341,-0.011231,-0.981475,-0.353526,0.93411,0.201178,0.144047,-0.033692,-1.043489,  --- 952.492249
-0.048341,-0.011231,-0.981475,-0.353526,0.93411,0.201178,0.144047,-0.033692,-1.043489,  --- 953.492432
-0.054201,-0.012207,-0.979522,-0.347178,0.929227,0.210944,0.141118,-0.026368,-1.036652,  --- 954.492554
-0.054201,-0.012207,-0.979522,-0.347178,0.929227,0.210944,0.141118,-0.026368,-1.036652,  --- 955.492737
-0.058107,-0.007324,-0.984405,-0.350108,0.935575,0.213385,0.143071,-0.025391,-1.034699,  --- 956.492859
-0.058107,-0.007324,-0.984405,-0.350108,0.935575,0.213385,0.143071,-0.025391,-1.034699,  --- 957.492981
-0.049318,-0.008789,-0.990753,-0.351085,0.934599,0.208502,0.139653,-0.024903,-1.018097,  --- 958.493164
-0.049318,-0.008789,-0.990753,-0.351085,0.934599,0.208502,0.139653,-0.024903,-1.018097,  --- 959.493347
-0.051271,-0.003418,-0.979522,-0.348155,0.938017,0.207037,0.135258,-0.019532,-1.031769,  --- 960.493469
-0.050783,-0.010254,-0.993194,-0.362316,0.946318,0.212409,0.146489,-0.02588,-1.039582,  --- 961.789246
-0.050783,-0.010254,-0.993194,-0.362316,0.946318,0.212409,0.146489,-0.02588,-1.039582,  --- 962.789368
-0.054689,-0.004883,-0.979522,-0.354015,0.925321,0.221198,0.149907,-0.027345,-1.036164,  --- 963.789551
-0.054689,-0.004883,-0.979522,-0.354015,0.925321,0.221198,0.149907,-0.027345,-1.036164,  --- 964.789673
-0.061525,-0.002441,-0.996124,-0.356456,0.935087,0.208991,0.148442,-0.028809,-1.021515,  --- 965.789917
-0.061525,-0.002441,-0.996124,-0.356456,0.935087,0.208991,0.148442,-0.028809,-1.021515,  --- 966.790161
-0.053224,-0.004883,-0.98587,-0.356456,0.943388,0.209479,0.138188,-0.02002,-1.017609,  --- 967.790527
-0.053224,-0.004883,-0.98587,-0.356456,0.943388,0.209479,0.138188,-0.02002,-1.017609,  --- 968.790649
-0.054201,-0.000977,-0.991241,-0.358409,0.935087,0.229011,0.129887,-0.033204,-1.039094,  --- 969.790833
-0.054201,-0.000977,-0.991241,-0.358409,0.935087,0.229011,0.129887,-0.033204,-1.039094,  --- 970.805603
-0.051271,-0.011231,-0.981963,-0.360851,0.935575,0.22364,0.144047,-0.025391,-1.033234,  --- 971.805908
-0.050783,-0.013184,-0.975127,-0.367199,0.929227,0.201178,0.143559,-0.032228,-1.02884,  --- 973.074524
-0.050783,-0.013184,-0.975127,-0.367199,0.929227,0.201178,0.143559,-0.032228,-1.02884,  --- 974.074707
-0.049806,-0.008789,-0.984893,-0.351573,0.926786,0.210456,0.144047,-0.028809,-1.041535,  --- 975.074829
-0.049806,-0.008789,-0.984893,-0.351573,0.926786,0.210456,0.144047,-0.028809,-1.041535,  --- 976.075073
-0.043458,-0.009766,-0.980498,-0.354503,0.935087,0.222663,0.140629,-0.02588,-1.01712,  --- 977.075195
-0.043458,-0.009766,-0.980498,-0.354503,0.935087,0.222663,0.140629,-0.02588,-1.01712,  --- 978.075378
-0.056154,-0.003418,-0.993682,-0.354015,0.932157,0.193365,0.138676,-0.024415,-1.036164,  --- 979.075500
-0.056154,-0.003418,-0.993682,-0.354015,0.932157,0.193365,0.138676,-0.024415,-1.036164,  --- 980.075684
-0.061037,-0.008301,-0.98001,-0.351085,0.933134,0.212897,0.141118,-0.031739,-1.030305,  --- 981.075806
-0.061037,-0.008301,-0.98001,-0.351085,0.933134,0.212897,0.141118,-0.031739,-1.030305,  --- 982.076172
-0.050783,-0.007324,-0.971221,-0.351573,0.931669,0.225593,0.141118,-0.026856,-1.028351,  --- 983.076477
-0.054689,-0.022462,-0.971709,-0.353526,0.929227,0.206549,0.14893,-0.032716,-1.036652,  --- 984.317505
-0.054689,-0.022462,-0.971709,-0.353526,0.929227,0.206549,0.14893,-0.032716,-1.036652,  --- 985.317688
-0.052736,-0.011231,-0.977569,-0.347667,0.926786,0.208502,0.152837,-0.027833,-1.031769,  --- 986.318237
-0.052736,-0.011231,-0.977569,-0.347667,0.926786,0.208502,0.152837,-0.027833,-1.031769,  --- 987.318420
-0.055666,-0.003418,-0.996612,-0.353526,0.924344,0.212409,0.145024,-0.018555,-1.018097,  --- 988.318542
-0.055666,-0.003418,-0.996612,-0.353526,0.924344,0.212409,0.145024,-0.018555,-1.018097,  --- 989.318726
-0.052736,-0.005371,-0.985381,-0.353038,0.932157,0.206061,0.140141,-0.02295,-1.02884,  --- 990.318848
-0.052736,-0.005371,-0.985381,-0.353038,0.932157,0.206061,0.140141,-0.02295,-1.02884,  --- 991.319031
-0.050783,-0.011231,-0.990264,-0.354503,0.927762,0.215827,0.140629,-0.020508,-1.029816,  --- 992.319214
-0.050783,-0.011231,-0.990264,-0.354503,0.927762,0.215827,0.140629,-0.020508,-1.029816,  --- 993.319397
-0.046388,-0.007813,-0.986846,-0.349132,0.930204,0.208502,0.135746,-0.021973,-1.029328,  --- 994.319580
-0.050294,-0.000488,-0.993194,-0.361827,0.932157,0.205573,0.144047,-0.027345,-1.016632,  --- 995.577271
-0.050294,-0.000488,-0.993194,-0.361827,0.932157,0.205573,0.144047,-0.027345,-1.016632,  --- 996.577454
-0.038575,-0.005371,-0.996124,-0.348643,0.928251,0.202643,0.149907,-0.012207,-1.034699,  --- 997.577637
-0.038575,-0.005371,-0.996124,-0.348643,0.928251,0.202643,0.149907,-0.012207,-1.034699,  --- 998.577820
-0.049318,-0.005371,-0.987823,-0.354991,0.922879,0.212409,0.13184,-0.027833,-1.038606,  --- 999.578186
-0.049318,-0.005371,-0.987823,-0.354991,0.922879,0.212409,0.13184,-0.027833,-1.038606,  --- 1000.578430
-0.053224,-0.001465,-0.994659,-0.355968,0.933134,0.201178,0.136723,-0.019532,-1.042024,  --- 1001.578613
-0.053224,-0.001465,-0.994659,-0.355968,0.933134,0.201178,0.136723,-0.019532,-1.042024,  --- 1002.578979
-0.032716,-0.013672,-0.986846,-0.345714,0.942411,0.207526,0.143071,-0.034181,-1.041047,  --- 1003.579163
-0.032716,-0.013672,-0.986846,-0.345714,0.942411,0.207526,0.143071,-0.034181,-1.041047,  --- 1004.579407
-0.055666,-0.00586,-0.991729,-0.344737,0.931669,0.217292,0.132817,-0.021973,-1.027863,  --- 1005.579529
-0.056642,-0.010743,-0.998565,-0.34962,0.942411,0.197272,0.137211,-0.008789,-1.037629,  --- 1006.873413
-0.056642,-0.010743,-0.998565,-0.34962,0.942411,0.197272,0.137211,-0.008789,-1.037629,  --- 1007.873657
-0.050783,-0.011231,-0.984893,-0.362804,0.93411,0.215827,0.146,-0.03711,-1.027375,  --- 1008.873840
-0.050783,-0.011231,-0.984893,-0.362804,0.93411,0.215827,0.146,-0.03711,-1.027375,  --- 1009.874023
-0.052248,0.002441,-0.982451,-0.358409,0.937528,0.20069,0.141118,-0.027833,-1.039094,  --- 1010.874207
-0.052248,0.002441,-0.982451,-0.358409,0.937528,0.20069,0.141118,-0.027833,-1.039094,  --- 1011.874451
-0.045412,-0.007813,-0.989288,-0.369152,0.927274,0.213385,0.136235,-0.031739,-1.035676,  --- 1012.874634
-0.045412,-0.007813,-0.989288,-0.369152,0.927274,0.213385,0.136235,-0.031739,-1.035676,  --- 1013.874878
-0.052248,-0.004395,-0.988311,-0.347178,0.939481,0.206549,0.13477,-0.020997,-1.043977,  --- 1014.875183
-0.052248,-0.004395,-0.988311,-0.347178,0.939481,0.206549,0.13477,-0.020997,-1.043977,  --- 1016.147888
-0.049318,-0.006836,-0.987823,-0.348155,0.942411,0.20069,0.137699,-0.027833,-1.018585,  --- 1017.148193
-0.047365,-0.004395,-0.97415,-0.364269,0.929227,0.212897,0.144536,-0.026856,-1.04007,  --- 1018.148376
-0.047365,-0.004395,-0.97415,-0.364269,0.929227,0.212897,0.144536,-0.026856,-1.04007,  --- 1019.148682
-0.046876,-0.00586,-0.982451,-0.355479,0.929716,0.21192,0.126957,-0.019532,-1.032258,  --- 1020.148987
-0.046876,-0.00586,-0.982451,-0.355479,0.929716,0.21192,0.126957,-0.019532,-1.032258,  --- 1021.149170
-0.050294,-0.004883,-0.981475,-0.354503,0.927274,0.208502,0.127934,-0.021485,-1.026886,  --- 1022.149292
-0.050294,-0.004883,-0.981475,-0.354503,0.927274,0.208502,0.127934,-0.021485,-1.026886,  --- 1023.149475
-0.047365,-0.009766,-0.979522,-0.347178,0.933622,0.212409,0.142094,-0.034181,-1.035676,  --- 1024.149658
-0.047365,-0.009766,-0.979522,-0.347178,0.933622,0.212409,0.142094,-0.034181,-1.035676,  --- 1025.149780
-0.047365,-0.007813,-0.98294,-0.355968,0.93118,0.190924,0.141606,-0.028321,-1.038117,  --- 0.000000
-0.052248,-0.016114,-0.988311,-0.353038,0.93118,0.218268,0.135746,-0.032228,-1.056672,  --- 1.353736
-0.052248,-0.016114,-0.988311,-0.353038,0.93118,0.218268,0.135746,-0.032228,-1.056672,  --- 2.354852
-0.051759,-0.012696,-0.98587,-0.344737,0.941923,0.205573,0.134281,-0.028321,-1.038606,  --- 3.355703
-0.051759,-0.012696,-0.98587,-0.344737,0.941923,0.205573,0.134281,-0.028321,-1.038606,  --- 4.356742
-0.048341,-0.024415,-0.986846,-0.357921,0.922391,0.221198,0.145512,-0.021973,-1.026886,  --- 5.357518
-0.048341,-0.024415,-0.986846,-0.357921,0.922391,0.221198,0.145512,-0.021973,-1.026886,  --- 6.357917
-0.052736,-0.013184,-0.981963,-0.35255,0.938017,0.212897,0.138676,-0.019532,-1.019562,  --- 7.358057
-0.0459,-0.010254,-0.993682,-0.351573,0.918973,0.212897,0.144047,-0.032716,-1.043977,  --- 8.632917
-0.0459,-0.010254,-0.993682,-0.351573,0.918973,0.212897,0.144047,-0.032716,-1.043977,  --- 9.633064
-0.062014,-0.001465,-0.98587,-0.345714,0.924344,0.195318,0.141606,-0.019044,-1.035676,  --- 10.633182
-0.062014,-0.001465,-0.98587,-0.345714,0.924344,0.195318,0.141606,-0.019044,-1.035676,  --- 11.633341
-0.049318,-0.015137,-0.97708,-0.341319,0.920438,0.213385,0.14893,-0.035646,-1.049348,  --- 12.633546
-0.049318,-0.015137,-0.97708,-0.341319,0.920438,0.213385,0.14893,-0.035646,-1.049348,  --- 13.633710
-0.056154,-0.009766,-0.972197,-0.354991,0.93118,0.21192,0.139653,-0.017579,-1.04007,  --- 14.633896
-0.056154,-0.009766,-0.972197,-0.354991,0.93118,0.21192,0.139653,-0.017579,-1.04007,  --- 15.634059
-0.052736,-0.015625,-0.982451,-0.354015,0.932157,0.219733,0.127934,-0.016114,-1.032746,  --- 16.634243
-0.052736,-0.015625,-0.982451,-0.354015,0.932157,0.219733,0.127934,-0.016114,-1.032746,  --- 17.928017
-0.051759,-0.020997,-0.978057,-0.370617,0.946318,0.210456,0.140141,-0.026368,-1.030305,  --- 18.930695
-0.056154,-0.006836,-0.991729,-0.353526,0.930692,0.215827,0.135258,-0.02295,-1.042512,  --- 19.948605
-0.056154,-0.006836,-0.991729,-0.353526,0.930692,0.215827,0.135258,-0.02295,-1.042512,  --- 20.948967
-0.054201,-0.013672,-0.973174,-0.351573,0.928251,0.221198,0.139164,-0.027345,-1.045442,  --- 21.949083
-0.054201,-0.013672,-0.973174,-0.351573,0.928251,0.221198,0.139164,-0.027345,-1.045442,  --- 22.967041
-0.048341,-0.008301,-0.987823,-0.351085,0.93411,0.201178,0.142094,-0.026368,-1.044953,  --- 23.967316
-0.048341,-0.008301,-0.987823,-0.351085,0.93411,0.201178,0.142094,-0.026368,-1.044953,  --- 24.967512
-0.051271,-0.016114,-0.990264,-0.359386,0.926786,0.193365,0.13477,-0.020508,-1.041047,  --- 25.967670
-0.051271,-0.016114,-0.990264,-0.359386,0.926786,0.193365,0.13477,-0.020508,-1.041047,  --- 26.967888
-0.049318,-0.007813,-0.983428,-0.351085,0.929227,0.203131,0.137211,-0.014161,-1.026398,  --- 27.973896
-0.047365,-0.011719,-0.988311,-0.34962,0.933622,0.200201,0.135746,-0.014649,-1.025422,  --- 29.209961
-0.047365,-0.011719,-0.988311,-0.34962,0.933622,0.200201,0.135746,-0.014649,-1.025422,  --- 30.210104
-0.049806,-0.019532,-0.994659,-0.355479,0.933622,0.216315,0.13477,-0.00586,-1.036164,  --- 31.210260
-0.049806,-0.019532,-0.994659,-0.355479,0.933622,0.216315,0.13477,-0.00586,-1.036164,  --- 32.210453
-0.051759,-0.009766,-0.990264,-0.345714,0.932157,0.201666,0.132328,-0.031739,-1.030793,  --- 33.210667
-0.051759,-0.009766,-0.990264,-0.345714,0.932157,0.201666,0.132328,-0.031739,-1.030793,  --- 34.210854
-0.0459,-0.003418,-0.98001,-0.344249,0.927274,0.195807,0.135746,-0.028809,-1.040559,  --- 35.211018
-0.0459,-0.003418,-0.98001,-0.344249,0.927274,0.195807,0.135746,-0.028809,-1.040559,  --- 36.211178
-0.050783,-0.00586,-0.995147,-0.350108,0.945341,0.210944,0.135746,-0.028809,-1.027375,  --- 37.211395
-0.050783,-0.00586,-0.995147,-0.350108,0.945341,0.210944,0.135746,-0.028809,-1.027375,  --- 38.211597
-0.053224,-0.025391,-0.983916,-0.34669,0.923368,0.220221,0.141118,-0.032716,-1.045442,  --- 39.211845
-0.053224,-0.004883,-0.990753,-0.344249,0.93411,0.210456,0.141606,-0.021973,-1.045442,  --- 40.463661
-0.053224,-0.004883,-0.990753,-0.344249,0.93411,0.210456,0.141606,-0.021973,-1.045442,  --- 41.463982
-0.055177,-0.013672,-0.988799,-0.361339,0.927762,0.207526,0.136723,-0.020508,-1.04593,  --- 42.464199
-0.055177,-0.013672,-0.988799,-0.361339,0.927762,0.207526,0.136723,-0.020508,-1.04593,  --- 43.464420
-0.052736,-0.011231,-0.985381,-0.346202,0.930204,0.199225,0.140141,-0.026368,-1.021027,  --- 44.464622
-0.052736,-0.011231,-0.985381,-0.346202,0.930204,0.199225,0.140141,-0.026368,-1.021027,  --- 45.464809
-0.048341,-0.013672,-0.980987,-0.35255,0.932645,0.224128,0.144536,-0.035646,-1.036652,  --- 46.465755
-0.048341,-0.013672,-0.980987,-0.35255,0.932645,0.224128,0.144536,-0.035646,-1.036652,  --- 47.465996
-0.054201,-0.014161,-0.989776,-0.358898,0.928251,0.211432,0.14893,-0.031251,-1.038606,  --- 48.471603
-0.054201,-0.014161,-0.989776,-0.358898,0.928251,0.211432,0.14893,-0.031251,-1.038606,  --- 49.471951
-0.056154,-0.011719,-0.980498,-0.348643,0.929716,0.22364,0.141118,-0.01709,-1.025422,  --- 50.472095
-0.056154,-0.011719,-0.980498,-0.348643,0.929716,0.22364,0.141118,-0.01709,-1.025422,  --- 51.722427
-0.053224,-0.007813,-0.987334,-0.355479,0.93997,0.197272,0.142582,-0.019044,-1.036164,  --- 52.722713
-0.044923,-0.00293,-0.983428,-0.347667,0.933134,0.209967,0.139653,-0.030274,-1.041047,  --- 53.722832
-0.044923,-0.00293,-0.983428,-0.347667,0.933134,0.209967,0.139653,-0.030274,-1.041047,  --- 54.723000
-0.049318,-0.002441,-0.986846,-0.355968,0.931669,0.218757,0.149907,-0.02295,-1.032746,  --- 55.731873
-0.049318,-0.002441,-0.986846,-0.355968,0.931669,0.218757,0.149907,-0.02295,-1.032746,  --- 56.732159
-0.057619,-0.008789,-0.98001,-0.350108,0.929227,0.222663,0.146489,-0.020508,-1.023468,  --- 57.737881
-0.057619,-0.008789,-0.98001,-0.350108,0.929227,0.222663,0.146489,-0.020508,-1.023468,  --- 58.738197
-0.050783,-0.008301,-0.986846,-0.357433,0.930692,0.201666,0.145512,-0.020508,-1.034699,  --- 59.738422
-0.050783,-0.008301,-0.986846,-0.357433,0.930692,0.201666,0.145512,-0.020508,-1.034699,  --- 60.738564
-0.047365,-0.01709,-0.996124,-0.355479,0.93997,0.203131,0.132817,-0.014649,-1.037629,  --- 61.738762
-0.0459,-0.003418,-0.992217,-0.341807,0.935575,0.216803,0.137699,-0.018067,-1.018585,  --- 63.131054
-0.0459,-0.003418,-0.992217,-0.341807,0.935575,0.216803,0.137699,-0.018067,-1.018585,  --- 64.131218
-0.050294,-0.008789,-1.004913,-0.35255,0.943388,0.212897,0.140629,-0.024903,-1.02884,  --- 65.131386
-0.050294,-0.008789,-1.004913,-0.35255,0.943388,0.212897,0.140629,-0.024903,-1.02884,  --- 66.131607
-0.053224,-0.006836,-0.978545,-0.357433,0.93704,0.211432,0.129887,-0.014649,-1.05179,  --- 67.131905
-0.053224,-0.006836,-0.978545,-0.357433,0.93704,0.211432,0.129887,-0.014649,-1.05179,  --- 68.132057
-0.054689,-0.004883,-0.999542,-0.35255,0.939481,0.20069,0.146489,-0.028321,-1.044953,  --- 69.132240
-0.054689,-0.004883,-0.999542,-0.35255,0.939481,0.20069,0.146489,-0.028321,-1.044953,  --- 70.132553
-0.055666,-0.001953,-0.9971,-0.34376,0.93704,0.202643,0.131352,-0.019532,-1.035676,  --- 71.132713
-0.055666,-0.001953,-0.9971,-0.34376,0.93704,0.202643,0.131352,-0.019532,-1.035676,  --- 72.323997
-0.049806,-0.012207,-0.994659,-0.355479,0.938505,0.22071,0.140629,-0.024415,-1.032746,  --- 73.324181
-0.053224,-0.003906,-0.98587,-0.350108,0.9429,0.218268,0.129398,-0.024903,-1.022492,  --- 74.327347
-0.053224,-0.003906,-0.98587,-0.350108,0.9429,0.218268,0.129398,-0.024903,-1.022492,  --- 75.327492
-0.052248,-0.010743,-0.995636,-0.344737,0.93118,0.210456,0.13477,-0.015625,-1.029328,  --- 76.327621
-0.052248,-0.010743,-0.995636,-0.344737,0.93118,0.210456,0.13477,-0.015625,-1.029328,  --- 77.338203
-0.055177,-0.011231,-0.979033,-0.350108,0.938505,0.21485,0.139653,-0.026856,-1.038117,  --- 78.360352
-0.055177,-0.011231,-0.979033,-0.350108,0.938505,0.21485,0.139653,-0.026856,-1.038117,  --- 79.360725
-0.0459,-0.008789,-0.989776,-0.357921,0.930692,0.218268,0.132817,-0.032228,-1.036164,  --- 80.360878
-0.0459,-0.008789,-0.989776,-0.357921,0.930692,0.218268,0.132817,-0.032228,-1.036164,  --- 81.361099
-0.052736,-0.010254,-0.985381,-0.349132,0.9429,0.207037,0.133305,-0.023927,-1.043,  --- 82.361336
-0.060549,-0.013184,-0.986358,-0.357921,0.919461,0.220221,0.146977,-0.030274,-1.037629,  --- 83.658218
-0.060549,-0.013184,-0.986358,-0.357921,0.919461,0.220221,0.146977,-0.030274,-1.037629,  --- 84.658386
-0.058107,0,-0.984893,-0.354015,0.93997,0.220221,0.136723,-0.030763,-1.021027,  --- 85.658546
-0.058107,0,-0.984893,-0.354015,0.93997,0.220221,0.136723,-0.030763,-1.021027,  --- 86.658813
-0.049318,-0.00293,-0.992706,-0.36378,0.922391,0.217292,0.127445,-0.006348,-1.016144,  --- 87.658936
-0.049318,-0.00293,-0.992706,-0.36378,0.922391,0.217292,0.127445,-0.006348,-1.016144,  --- 88.659378
-0.055666,-0.00586,-0.970732,-0.353526,0.940458,0.216803,0.137211,-0.033204,-1.033723,  --- 89.659561
-0.055666,-0.00586,-0.970732,-0.353526,0.940458,0.216803,0.137211,-0.033204,-1.033723,  --- 90.659782
-0.050783,-0.006836,-0.971221,-0.354015,0.930692,0.217292,0.141118,-0.025391,-1.027375,  --- 91.659935
-0.050783,-0.006836,-0.971221,-0.354015,0.930692,0.217292,0.141118,-0.025391,-1.027375,  --- 92.660080
-0.052736,-0.011719,-0.968291,-0.348643,0.943388,0.216803,0.139653,-0.021485,-1.032746,  --- 93.660301
-0.059084,-0.00586,-0.972197,-0.351085,0.923368,0.208502,0.138188,-0.019532,-1.050325,  --- 94.900360
-0.059084,-0.00586,-0.972197,-0.351085,0.923368,0.208502,0.138188,-0.019532,-1.050325,  --- 95.900520
-0.056642,-0.011719,-0.994659,-0.354503,0.931669,0.212897,0.142582,-0.029298,-1.035187,  --- 96.903198
-0.056642,-0.011719,-0.994659,-0.354503,0.931669,0.212897,0.142582,-0.029298,-1.035187,  --- 97.903465
-0.062014,-0.004395,-0.983428,-0.346202,0.944364,0.190435,0.13477,-0.016114,-1.027375,  --- 98.906319
-0.062014,-0.004395,-0.983428,-0.346202,0.944364,0.190435,0.13477,-0.016114,-1.027375,  --- 99.906639
-0.047853,-0.000977,-0.987334,-0.355968,0.91702,0.207037,0.140629,-0.021485,-1.038606,  --- 100.906944
-0.047853,-0.000977,-0.987334,-0.355968,0.91702,0.207037,0.140629,-0.021485,-1.038606,  --- 101.907127
-0.051759,-0.015137,-0.972197,-0.360362,0.943388,0.19776,0.142094,-0.013184,-1.032258,  --- 102.907265
-0.051759,-0.015137,-0.972197,-0.360362,0.943388,0.19776,0.142094,-0.013184,-1.032258,  --- 103.907494
-0.041505,-0.010743,-0.97415,-0.35255,0.918485,0.215827,0.146,-0.03711,-1.039094,  --- 104.907814
-0.041505,-0.010743,-0.97415,-0.35255,0.918485,0.215827,0.146,-0.03711,-1.039094,  --- 106.152763
-0.042482,-0.003906,-0.959502,-0.354015,0.9429,0.194342,0.136235,-0.030763,-1.019074,  --- 107.152901
-0.049806,-0.011719,-0.993682,-0.349132,0.913602,0.199713,0.14893,-0.016602,-1.035187,  --- 108.168228
-0.049806,-0.011719,-0.993682,-0.349132,0.913602,0.199713,0.14893,-0.016602,-1.035187,  --- 109.168358
-0.046876,-0.013184,-0.988311,-0.348155,0.940946,0.207526,0.140141,-0.027833,-1.033723,  --- 110.168526
-0.046876,-0.013184,-0.988311,-0.348155,0.940946,0.207526,0.140141,-0.027833,-1.033723,  --- 111.174393
-0.051759,-0.003418,-0.989776,-0.358898,0.917508,0.21485,0.125004,-0.030274,-1.031281,  --- 112.174660
-0.051759,-0.003418,-0.989776,-0.358898,0.917508,0.21485,0.125004,-0.030274,-1.031281,  --- 113.174789
-0.059084,-0.010254,-0.994659,-0.352061,0.941923,0.226569,0.140629,-0.00586,-1.044953,  --- 114.174927
-0.059084,-0.010254,-0.994659,-0.352061,0.941923,0.226569,0.140629,-0.00586,-1.044953,  --- 115.175087
-0.06299,-0.005371,-0.978057,-0.364757,0.935087,0.206549,0.142094,-0.024903,-1.023957,  --- 116.175316
-0.06299,-0.005371,-0.978057,-0.364757,0.935087,0.206549,0.142094,-0.024903,-1.023957,  --- 117.379967
-0.049806,-0.00586,-0.990753,-0.34376,0.944364,0.21485,0.132817,-0.028321,-1.043977,  --- 118.380150
-0.049806,-0.00586,-0.990753,-0.34376,0.944364,0.21485,0.132817,-0.028321,-1.043977,  --- 119.388428
-0.046388,0.000488,-0.992706,-0.359386,0.93997,0.206061,0.12598,-0.028321,-1.038117,  --- 120.388634
-0.054689,-0.012207,-1.003448,-0.354991,0.938017,0.199713,0.142094,-0.03711,-1.035676,  --- 121.388840
-0.054689,-0.012207,-1.003448,-0.354991,0.938017,0.199713,0.142094,-0.03711,-1.035676,  --- 122.389000
-0.056642,-0.001465,-0.998077,-0.354503,0.941923,0.205084,0.131352,-0.025391,-1.036164,  --- 123.389130
-0.056642,-0.001465,-0.998077,-0.354503,0.941923,0.205084,0.131352,-0.025391,-1.036164,  --- 124.389366
-0.051271,-0.001953,-0.984405,-0.355479,0.940458,0.207037,0.143559,-0.029298,-1.035187,  --- 125.389656
-0.051271,-0.001953,-0.984405,-0.355479,0.940458,0.207037,0.143559,-0.029298,-1.035187,  --- 126.389801
-0.056642,-0.012207,-0.988311,-0.361339,0.945829,0.209479,0.144536,-0.026856,-1.029328,  --- 127.389954
-0.056642,-0.012207,-0.988311,-0.361339,0.945829,0.209479,0.144536,-0.026856,-1.029328,  --- 128.390244
-0.059084,-0.010254,-0.996612,-0.361339,0.925321,0.210456,0.144536,-0.032228,-1.027863,  --- 129.390366
-0.059084,-0.010254,-0.996612,-0.361339,0.925321,0.210456,0.144536,-0.032228,-1.027863,  --- 130.676712
-0.051271,-0.005371,-0.988311,-0.348155,0.949247,0.205084,0.149419,-0.022462,-1.053254,  --- 131.676849
-0.046876,-0.014649,-0.993682,-0.360851,0.93118,0.215339,0.146489,-0.017579,-1.022004,  --- 132.677032
-0.046876,-0.014649,-0.993682,-0.360851,0.93118,0.215339,0.146489,-0.017579,-1.022004,  --- 133.677216
-0.054689,-0.009278,-0.98294,-0.354015,0.942411,0.192389,0.129887,-0.026856,-1.034211,  --- 134.677811
-0.054689,-0.009278,-0.98294,-0.354015,0.942411,0.192389,0.129887,-0.026856,-1.034211,  --- 135.683350
-0.047365,-0.011719,-0.978057,-0.357921,0.925321,0.215827,0.138676,-0.025391,-1.040559,  --- 136.683670
-0.047365,-0.011719,-0.978057,-0.357921,0.925321,0.215827,0.138676,-0.025391,-1.040559,  --- 137.683853
-0.058596,0.003906,-0.983916,-0.351573,0.939481,0.22071,0.142094,-0.035157,-1.037629,  --- 138.684036
-0.058596,0.003906,-0.983916,-0.351573,0.939481,0.22071,0.142094,-0.035157,-1.037629,  --- 139.684235
-0.044923,-0.003906,-0.98294,-0.363292,0.924833,0.21192,0.141606,-0.029786,-1.048371,  --- 140.684509
-0.044923,-0.003906,-0.98294,-0.363292,0.924833,0.21192,0.141606,-0.029786,-1.048371,  --- 141.948471
-0.045412,-0.008301,-0.977569,-0.350108,0.93118,0.19776,0.145512,-0.029298,-1.029816,  --- 142.948608
-0.054201,-0.020508,-0.978545,-0.353038,0.920926,0.206549,0.131352,-0.019044,-1.010284,  --- 143.948807
-0.054201,-0.020508,-0.978545,-0.353038,0.920926,0.206549,0.131352,-0.019044,-1.010284,  --- 144.949036
-0.042482,-0.003418,-0.983916,-0.345225,0.93118,0.198736,0.137211,-0.024415,-1.032258,  --- 145.949234
-0.042482,-0.003418,-0.983916,-0.345225,0.93118,0.198736,0.137211,-0.024415,-1.032258,  --- 146.949417
-0.049318,-0.011231,-0.994171,-0.354015,0.93704,0.203131,0.141606,-0.018067,-1.043,  --- 147.949615
-0.049318,-0.011231,-0.994171,-0.354015,0.93704,0.203131,0.141606,-0.018067,-1.043,  --- 148.949875
-0.055666,-0.004883,-0.998565,-0.357433,0.928739,0.208502,0.144536,-0.02002,-1.014679,  --- 149.950211
-0.055666,-0.004883,-0.998565,-0.357433,0.928739,0.208502,0.144536,-0.02002,-1.014679,  --- 150.950363
-0.055177,-0.014161,-0.994171,-0.345714,0.940458,0.212409,0.143559,-0.02588,-1.020539,  --- 151.950653
-0.055177,-0.014161,-0.994171,-0.345714,0.940458,0.212409,0.143559,-0.02588,-1.020539,  --- 153.235260
-0.050783,-0.013184,-0.999542,-0.356944,0.933134,0.222175,0.138676,-0.014649,-1.028351,  --- 154.235458
-0.056642,-0.002441,-0.984893,-0.355479,0.932645,0.204108,0.129398,-0.022462,-1.021515,  --- 155.235611
-0.056642,-0.002441,-0.984893,-0.355479,0.932645,0.204108,0.129398,-0.022462,-1.021515,  --- 156.235794
-0.053224,-0.009766,-0.970732,-0.351085,0.926786,0.209967,0.135746,-0.02002,-1.033234,  --- 157.235992
-0.053224,-0.009766,-0.970732,-0.351085,0.926786,0.209967,0.135746,-0.02002,-1.033234,  --- 158.236160
-0.060549,-0.007813,-0.97708,-0.347667,0.928251,0.200201,0.133793,-0.019044,-1.037629,  --- 159.236313
-0.060549,-0.007813,-0.97708,-0.347667,0.928251,0.200201,0.133793,-0.019044,-1.037629,  --- 160.236481
-0.052736,-0.013184,-0.97415,-0.367687,0.940458,0.203131,0.134281,-0.030274,-1.019074,  --- 161.236649
-0.052736,-0.013184,-0.97415,-0.367687,0.940458,0.203131,0.134281,-0.030274,-1.019074,  --- 162.236816
-0.049318,-0.004883,-0.991729,-0.351573,0.933134,0.207526,0.145512,-0.02295,-1.039582,  --- 163.237045
-0.054201,-0.013672,-0.98001,-0.355968,0.939481,0.221198,0.133305,-0.020508,-1.021027,  --- 164.558701
-0.054201,-0.013672,-0.98001,-0.355968,0.939481,0.221198,0.133305,-0.020508,-1.021027,  --- 165.558884
-0.058107,-0.012696,-0.990753,-0.354015,0.934599,0.206549,0.146977,-0.026856,-1.017609,  --- 166.559250
-0.058107,-0.012696,-0.990753,-0.354015,0.934599,0.206549,0.146977,-0.026856,-1.017609,  --- 167.559418
-0.051271,-0.01709,-0.98001,-0.348643,0.93411,0.207526,0.141606,-0.020508,-1.01712,  --- 168.559586
-0.051271,-0.01709,-0.98001,-0.348643,0.93411,0.207526,0.141606,-0.020508,-1.01712,  --- 169.559769
-0.052736,-0.007813,-0.965361,-0.358409,0.929227,0.217292,0.134281,-0.016602,-1.041535,  --- 170.559891
-0.052736,-0.007813,-0.965361,-0.358409,0.929227,0.217292,0.134281,-0.016602,-1.041535,  --- 171.560043
